[
    {
        "rt": 860.4000000059605,
        "stimulus": "https://cdn.jsdelivr.net/gh/dvitaa/jsPsych-in-Qualtrics67/countingstroop/img/3incon4.png",
        "key_press": 52,
        "stim_type": "incongruent",
        "count": "4",
        "trial_type": "image-keyboard-response",
        "trial_index": 11,
        "time_elapsed": 21581,
        "internal_node_id": "0.0-4.0-0.0",
        "correct": true,
        "practice": 0
    },
    {
        "rt": 645.3000000119209,
        "stimulus": "https://cdn.jsdelivr.net/gh/dvitaa/jsPsych-in-Qualtrics67/countingstroop/img/1incon3.png",
        "key_press": 51,
        "stim_type": "incongruent",
        "count": "3",
        "trial_type": "image-keyboard-response",
        "trial_index": 12,
        "time_elapsed": 23065,
        "internal_node_id": "0.0-4.0-0.1",
        "correct": true,
        "practice": 0
    },
    {
        "rt": 797.4000000059605,
        "stimulus": "https://cdn.jsdelivr.net/gh/dvitaa/jsPsych-in-Qualtrics67/countingstroop/img/4incon2.png",
        "key_press": 50,
        "stim_type": "incongruent",
        "count": "2",
        "trial_type": "image-keyboard-response",
        "trial_index": 13,
        "time_elapsed": 24904,
        "internal_node_id": "0.0-4.0-0.2",
        "correct": true,
        "practice": 0
    },
    {
        "rt": 559.7000000029802,
        "stimulus": "https://cdn.jsdelivr.net/gh/dvitaa/jsPsych-in-Qualtrics67/countingstroop/img/4incon2.png",
        "key_press": 50,
        "stim_type": "incongruent",
        "count": "2",
        "trial_type": "image-keyboard-response",
        "trial_index": 14,
        "time_elapsed": 26781,
        "internal_node_id": "0.0-4.0-0.3",
        "correct": true,
        "practice": 0
    },
    {
        "rt": 824,
        "stimulus": "https://cdn.jsdelivr.net/gh/dvitaa/jsPsych-in-Qualtrics67/countingstroop/img/2incon3.png",
        "key_press": 51,
        "stim_type": "incongruent",
        "count": "3",
        "trial_type": "image-keyboard-response",
        "trial_index": 15,
        "time_elapsed": 29115,
        "internal_node_id": "0.0-4.0-0.4",
        "correct": true,
        "practice": 0
    },
    {
        "rt": 735.5,
        "stimulus": "https://cdn.jsdelivr.net/gh/dvitaa/jsPsych-in-Qualtrics67/countingstroop/img/2con.png",
        "key_press": 50,
        "stim_type": "congruent",
        "count": "2",
        "trial_type": "image-keyboard-response",
        "trial_index": 16,
        "time_elapsed": 30816,
        "internal_node_id": "0.0-4.0-0.5",
        "correct": true,
        "practice": 0
    },
    {
        "rt": 983.2000000029802,
        "stimulus": "https://cdn.jsdelivr.net/gh/dvitaa/jsPsych-in-Qualtrics67/countingstroop/img/3incon2.png",
        "key_press": 51,
        "stim_type": "incongruent",
        "count": "2",
        "trial_type": "image-keyboard-response",
        "trial_index": 17,
        "time_elapsed": 33575,
        "internal_node_id": "0.0-4.0-0.6",
        "correct": false,
        "practice": 0
    },
    {
        "rt": 683.0999999940395,
        "stimulus": "https://cdn.jsdelivr.net/gh/dvitaa/jsPsych-in-Qualtrics67/countingstroop/img/1con.png",
        "key_press": 50,
        "stim_type": "congruent",
        "count": "1",
        "trial_type": "image-keyboard-response",
        "trial_index": 18,
        "time_elapsed": 35581,
        "internal_node_id": "0.0-4.0-0.7",
        "correct": false,
        "practice": 0
    },
    {
        "rt": 779.4000000059605,
        "stimulus": "https://cdn.jsdelivr.net/gh/dvitaa/jsPsych-in-Qualtrics67/countingstroop/img/2incon1.png",
        "key_press": 49,
        "stim_type": "incongruent",
        "count": "1",
        "trial_type": "image-keyboard-response",
        "trial_index": 19,
        "time_elapsed": 37613,
        "internal_node_id": "0.0-4.0-0.8",
        "correct": true,
        "practice": 0
    },
    {
        "rt": 1014.5,
        "stimulus": "https://cdn.jsdelivr.net/gh/dvitaa/jsPsych-in-Qualtrics67/countingstroop/img/3incon4.png",
        "key_press": 52,
        "stim_type": "incongruent",
        "count": "4",
        "trial_type": "image-keyboard-response",
        "trial_index": 20,
        "time_elapsed": 39257,
        "internal_node_id": "0.0-4.0-0.9",
        "correct": true,
        "practice": 0
    },
    {
        "rt": 996.0999999940395,
        "stimulus": "https://cdn.jsdelivr.net/gh/dvitaa/jsPsych-in-Qualtrics67/countingstroop/img/2incon1.png",
        "key_press": 50,
        "stim_type": "incongruent",
        "count": "1",
        "trial_type": "image-keyboard-response",
        "trial_index": 21,
        "time_elapsed": 41335,
        "internal_node_id": "0.0-4.0-0.10",
        "correct": false,
        "practice": 0
    },
    {
        "rt": 699.6000000089407,
        "stimulus": "https://cdn.jsdelivr.net/gh/dvitaa/jsPsych-in-Qualtrics67/countingstroop/img/3incon2.png",
        "key_press": 51,
        "stim_type": "incongruent",
        "count": "2",
        "trial_type": "image-keyboard-response",
        "trial_index": 22,
        "time_elapsed": 43392,
        "internal_node_id": "0.0-4.0-0.11",
        "correct": false,
        "practice": 0
    },
    {
        "rt": 507.20000000298023,
        "stimulus": "https://cdn.jsdelivr.net/gh/dvitaa/jsPsych-in-Qualtrics67/countingstroop/img/4con.png",
        "key_press": 52,
        "stim_type": "congruent",
        "count": "4",
        "trial_type": "image-keyboard-response",
        "trial_index": 23,
        "time_elapsed": 44670,
        "internal_node_id": "0.0-4.0-0.12",
        "correct": true,
        "practice": 0
    },
    {
        "rt": 1020.8999999910593,
        "stimulus": "https://cdn.jsdelivr.net/gh/dvitaa/jsPsych-in-Qualtrics67/countingstroop/img/4incon2.png",
        "key_press": 50,
        "stim_type": "incongruent",
        "count": "2",
        "trial_type": "image-keyboard-response",
        "trial_index": 24,
        "time_elapsed": 47660,
        "internal_node_id": "0.0-4.0-0.13",
        "correct": true,
        "practice": 0
    },
    {
        "rt": 582.2000000029802,
        "stimulus": "https://cdn.jsdelivr.net/gh/dvitaa/jsPsych-in-Qualtrics67/countingstroop/img/4con.png",
        "key_press": 51,
        "stim_type": "congruent",
        "count": "4",
        "trial_type": "image-keyboard-response",
        "trial_index": 25,
        "time_elapsed": 49860,
        "internal_node_id": "0.0-4.0-0.14",
        "correct": false,
        "practice": 0
    },
    {
        "rt": 820.5999999940395,
        "stimulus": "https://cdn.jsdelivr.net/gh/dvitaa/jsPsych-in-Qualtrics67/countingstroop/img/1incon3.png",
        "key_press": 51,
        "stim_type": "incongruent",
        "count": "3",
        "trial_type": "image-keyboard-response",
        "trial_index": 26,
        "time_elapsed": 52131,
        "internal_node_id": "0.0-4.0-0.15",
        "correct": true,
        "practice": 0
    },
    {
        "rt": 717.9000000059605,
        "stimulus": "https://cdn.jsdelivr.net/gh/dvitaa/jsPsych-in-Qualtrics67/countingstroop/img/4incon2.png",
        "key_press": 50,
        "stim_type": "incongruent",
        "count": "2",
        "trial_type": "image-keyboard-response",
        "trial_index": 27,
        "time_elapsed": 53644,
        "internal_node_id": "0.0-4.0-0.16",
        "correct": true,
        "practice": 0
    },
    {
        "rt": 759.7999999970198,
        "stimulus": "https://cdn.jsdelivr.net/gh/dvitaa/jsPsych-in-Qualtrics67/countingstroop/img/1incon2.png",
        "key_press": 50,
        "stim_type": "incongruent",
        "count": "2",
        "trial_type": "image-keyboard-response",
        "trial_index": 28,
        "time_elapsed": 55324,
        "internal_node_id": "0.0-4.0-0.17",
        "correct": true,
        "practice": 0
    },
    {
        "rt": 810.5999999940395,
        "stimulus": "https://cdn.jsdelivr.net/gh/dvitaa/jsPsych-in-Qualtrics67/countingstroop/img/3incon1.png",
        "key_press": 49,
        "stim_type": "incongruent",
        "count": "1",
        "trial_type": "image-keyboard-response",
        "trial_index": 29,
        "time_elapsed": 58056,
        "internal_node_id": "0.0-4.0-0.18",
        "correct": true,
        "practice": 0
    },
    {
        "rt": 1092.2000000029802,
        "stimulus": "https://cdn.jsdelivr.net/gh/dvitaa/jsPsych-in-Qualtrics67/countingstroop/img/3incon2.png",
        "key_press": 50,
        "stim_type": "incongruent",
        "count": "2",
        "trial_type": "image-keyboard-response",
        "trial_index": 30,
        "time_elapsed": 59947,
        "internal_node_id": "0.0-4.0-0.19",
        "correct": true,
        "practice": 0
    },
    {
        "rt": 1309.699999988079,
        "stimulus": "https://cdn.jsdelivr.net/gh/dvitaa/jsPsych-in-Qualtrics67/countingstroop/img/1incon4.png",
        "key_press": 52,
        "stim_type": "incongruent",
        "count": "4",
        "trial_type": "image-keyboard-response",
        "trial_index": 31,
        "time_elapsed": 62524,
        "internal_node_id": "0.0-4.0-0.20",
        "correct": true,
        "practice": 0
    },
    {
        "rt": 990.2999999970198,
        "stimulus": "https://cdn.jsdelivr.net/gh/dvitaa/jsPsych-in-Qualtrics67/countingstroop/img/3con.png",
        "key_press": 51,
        "stim_type": "congruent",
        "count": "3",
        "trial_type": "image-keyboard-response",
        "trial_index": 32,
        "time_elapsed": 65069,
        "internal_node_id": "0.0-4.0-0.21",
        "correct": true,
        "practice": 0
    },
    {
        "rt": 849.5999999940395,
        "stimulus": "https://cdn.jsdelivr.net/gh/dvitaa/jsPsych-in-Qualtrics67/countingstroop/img/3incon4.png",
        "key_press": 52,
        "stim_type": "incongruent",
        "count": "4",
        "trial_type": "image-keyboard-response",
        "trial_index": 33,
        "time_elapsed": 66559,
        "internal_node_id": "0.0-4.0-0.22",
        "correct": true,
        "practice": 0
    },
    {
        "rt": 784,
        "stimulus": "https://cdn.jsdelivr.net/gh/dvitaa/jsPsych-in-Qualtrics67/countingstroop/img/2incon4.png",
        "key_press": 52,
        "stim_type": "incongruent",
        "count": "4",
        "trial_type": "image-keyboard-response",
        "trial_index": 34,
        "time_elapsed": 68777,
        "internal_node_id": "0.0-4.0-0.23",
        "correct": true,
        "practice": 0
    },
    {
        "rt": 645.2000000029802,
        "stimulus": "https://cdn.jsdelivr.net/gh/dvitaa/jsPsych-in-Qualtrics67/countingstroop/img/2incon1.png",
        "key_press": 49,
        "stim_type": "incongruent",
        "count": "1",
        "trial_type": "image-keyboard-response",
        "trial_index": 35,
        "time_elapsed": 70654,
        "internal_node_id": "0.0-4.0-0.24",
        "correct": true,
        "practice": 0
    },
    {
        "rt": 840.2999999970198,
        "stimulus": "https://cdn.jsdelivr.net/gh/dvitaa/jsPsych-in-Qualtrics67/countingstroop/img/3incon1.png",
        "key_press": 51,
        "stim_type": "incongruent",
        "count": "1",
        "trial_type": "image-keyboard-response",
        "trial_index": 36,
        "time_elapsed": 72968,
        "internal_node_id": "0.0-4.0-0.25",
        "correct": false,
        "practice": 0
    },
    {
        "rt": 709.2000000029802,
        "stimulus": "https://cdn.jsdelivr.net/gh/dvitaa/jsPsych-in-Qualtrics67/countingstroop/img/4con.png",
        "key_press": 52,
        "stim_type": "congruent",
        "count": "4",
        "trial_type": "image-keyboard-response",
        "trial_index": 37,
        "time_elapsed": 74533,
        "internal_node_id": "0.0-4.0-0.26",
        "correct": true,
        "practice": 0
    },
    {
        "rt": 1023.5999999940395,
        "stimulus": "https://cdn.jsdelivr.net/gh/dvitaa/jsPsych-in-Qualtrics67/countingstroop/img/4incon1.png",
        "key_press": 49,
        "stim_type": "incongruent",
        "count": "1",
        "trial_type": "image-keyboard-response",
        "trial_index": 38,
        "time_elapsed": 76986,
        "internal_node_id": "0.0-4.0-0.27",
        "correct": true,
        "practice": 0
    },
    {
        "rt": 565.5,
        "stimulus": "https://cdn.jsdelivr.net/gh/dvitaa/jsPsych-in-Qualtrics67/countingstroop/img/2incon1.png",
        "key_press": 49,
        "stim_type": "incongruent",
        "count": "1",
        "trial_type": "image-keyboard-response",
        "trial_index": 39,
        "time_elapsed": 78592,
        "internal_node_id": "0.0-4.0-0.28",
        "correct": true,
        "practice": 0
    },
    {
        "rt": 702.3999999910593,
        "stimulus": "https://cdn.jsdelivr.net/gh/dvitaa/jsPsych-in-Qualtrics67/countingstroop/img/2incon1.png",
        "key_press": 49,
        "stim_type": "incongruent",
        "count": "1",
        "trial_type": "image-keyboard-response",
        "trial_index": 40,
        "time_elapsed": 80393,
        "internal_node_id": "0.0-4.0-0.29",
        "correct": true,
        "practice": 0
    },
    {
        "rt": 702,
        "stimulus": "https://cdn.jsdelivr.net/gh/dvitaa/jsPsych-in-Qualtrics67/countingstroop/img/1con.png",
        "key_press": 49,
        "stim_type": "congruent",
        "count": "1",
        "trial_type": "image-keyboard-response",
        "trial_index": 41,
        "time_elapsed": 82494,
        "internal_node_id": "0.0-4.0-0.30",
        "correct": true,
        "practice": 0
    }
]