,rt,stimulus,key_press,stim_type,count,trial_type,trial_index,time_elapsed,internal_node_id,correct,practice,ResponseId
0,624.2000000029802,https://cdn.jsdelivr.net/gh/dvitaa/jsPsych-in-Qualtrics65/countingstroop/img/2incon4.png,52.0,incongruent,4,image-keyboard-response,86,243757,0.0-4.0-0.75,True,0,R_21Fe5Zie1owa6uc
1,640.7999999970198,https://cdn.jsdelivr.net/gh/dvitaa/jsPsych-in-Qualtrics65/countingstroop/img/3incon2.png,50.0,incongruent,2,image-keyboard-response,65,204126,0.0-4.0-0.54,True,0,R_21Fe5Zie1owa6uc
2,612.8999999910593,https://cdn.jsdelivr.net/gh/dvitaa/jsPsych-in-Qualtrics65/countingstroop/img/2incon4.png,52.0,incongruent,4,image-keyboard-response,64,201965,0.0-4.0-0.53,True,0,R_21Fe5Zie1owa6uc
3,528.7000000029802,https://cdn.jsdelivr.net/gh/dvitaa/jsPsych-in-Qualtrics65/countingstroop/img/1incon4.png,52.0,incongruent,4,image-keyboard-response,63,199443,0.0-4.0-0.52,True,0,R_21Fe5Zie1owa6uc
4,497.5,https://cdn.jsdelivr.net/gh/dvitaa/jsPsych-in-Qualtrics65/countingstroop/img/2incon3.png,51.0,incongruent,3,image-keyboard-response,62,197763,0.0-4.0-0.51,True,0,R_21Fe5Zie1owa6uc
5,556.2999999970198,https://cdn.jsdelivr.net/gh/dvitaa/jsPsych-in-Qualtrics65/countingstroop/img/2incon4.png,52.0,incongruent,4,image-keyboard-response,61,196092,0.0-4.0-0.50,True,0,R_21Fe5Zie1owa6uc
6,804.8000000119209,https://cdn.jsdelivr.net/gh/dvitaa/jsPsych-in-Qualtrics65/countingstroop/img/4incon2.png,50.0,incongruent,2,image-keyboard-response,60,194389,0.0-4.0-0.49,True,0,R_21Fe5Zie1owa6uc
7,549.9000000059605,https://cdn.jsdelivr.net/gh/dvitaa/jsPsych-in-Qualtrics65/countingstroop/img/4incon3.png,51.0,incongruent,3,image-keyboard-response,59,192058,0.0-4.0-0.48,True,0,R_21Fe5Zie1owa6uc
8,512.2000000029802,https://cdn.jsdelivr.net/gh/dvitaa/jsPsych-in-Qualtrics65/countingstroop/img/1incon4.png,52.0,incongruent,4,image-keyboard-response,58,190518,0.0-4.0-0.47,True,0,R_21Fe5Zie1owa6uc
9,524.6000000089407,https://cdn.jsdelivr.net/gh/dvitaa/jsPsych-in-Qualtrics65/countingstroop/img/3con.png,51.0,congruent,3,image-keyboard-response,57,189383,0.0-4.0-0.46,True,0,R_21Fe5Zie1owa6uc
10,713.5,https://cdn.jsdelivr.net/gh/dvitaa/jsPsych-in-Qualtrics65/countingstroop/img/1incon3.png,51.0,incongruent,3,image-keyboard-response,56,188229,0.0-4.0-0.45,True,0,R_21Fe5Zie1owa6uc
11,521.4000000059605,https://cdn.jsdelivr.net/gh/dvitaa/jsPsych-in-Qualtrics65/countingstroop/img/4incon1.png,49.0,incongruent,1,image-keyboard-response,55,186190,0.0-4.0-0.44,True,0,R_21Fe5Zie1owa6uc
12,417.70000000298023,https://cdn.jsdelivr.net/gh/dvitaa/jsPsych-in-Qualtrics65/countingstroop/img/1con.png,49.0,congruent,1,image-keyboard-response,54,185109,0.0-4.0-0.43,True,0,R_21Fe5Zie1owa6uc
13,456.40000000596046,https://cdn.jsdelivr.net/gh/dvitaa/jsPsych-in-Qualtrics65/countingstroop/img/2incon3.png,51.0,incongruent,3,image-keyboard-response,53,182910,0.0-4.0-0.42,True,0,R_21Fe5Zie1owa6uc
14,513.8999999910593,https://cdn.jsdelivr.net/gh/dvitaa/jsPsych-in-Qualtrics65/countingstroop/img/4incon2.png,50.0,incongruent,2,image-keyboard-response,52,181342,0.0-4.0-0.41,True,0,R_21Fe5Zie1owa6uc
15,494.30000001192093,https://cdn.jsdelivr.net/gh/dvitaa/jsPsych-in-Qualtrics65/countingstroop/img/4incon2.png,50.0,incongruent,2,image-keyboard-response,51,180198,0.0-4.0-0.40,True,0,R_21Fe5Zie1owa6uc
16,740.7000000029802,https://cdn.jsdelivr.net/gh/dvitaa/jsPsych-in-Qualtrics65/countingstroop/img/3incon4.png,52.0,incongruent,4,image-keyboard-response,66,205657,0.0-4.0-0.55,True,0,R_21Fe5Zie1owa6uc
17,578.7000000029802,https://cdn.jsdelivr.net/gh/dvitaa/jsPsych-in-Qualtrics65/countingstroop/img/2incon3.png,51.0,incongruent,3,image-keyboard-response,67,206960,0.0-4.0-0.56,True,0,R_21Fe5Zie1owa6uc
18,672.5,https://cdn.jsdelivr.net/gh/dvitaa/jsPsych-in-Qualtrics65/countingstroop/img/3con.png,51.0,congruent,3,image-keyboard-response,68,209277,0.0-4.0-0.57,True,0,R_21Fe5Zie1owa6uc
19,538.2999999970198,https://cdn.jsdelivr.net/gh/dvitaa/jsPsych-in-Qualtrics65/countingstroop/img/2incon3.png,51.0,incongruent,3,image-keyboard-response,69,211006,0.0-4.0-0.58,True,0,R_21Fe5Zie1owa6uc
20,657.0999999940395,https://cdn.jsdelivr.net/gh/dvitaa/jsPsych-in-Qualtrics65/countingstroop/img/2incon3.png,51.0,incongruent,3,image-keyboard-response,85,241424,0.0-4.0-0.74,True,0,R_21Fe5Zie1owa6uc
21,734.0999999940395,https://cdn.jsdelivr.net/gh/dvitaa/jsPsych-in-Qualtrics65/countingstroop/img/4incon2.png,50.0,incongruent,2,image-keyboard-response,84,238957,0.0-4.0-0.73,True,0,R_21Fe5Zie1owa6uc
22,618.2999999970198,https://cdn.jsdelivr.net/gh/dvitaa/jsPsych-in-Qualtrics65/countingstroop/img/4incon1.png,49.0,incongruent,1,image-keyboard-response,83,236308,0.0-4.0-0.72,True,0,R_21Fe5Zie1owa6uc
23,685.0,https://cdn.jsdelivr.net/gh/dvitaa/jsPsych-in-Qualtrics65/countingstroop/img/3con.png,51.0,congruent,3,image-keyboard-response,82,235065,0.0-4.0-0.71,True,0,R_21Fe5Zie1owa6uc
24,644.7000000029802,https://cdn.jsdelivr.net/gh/dvitaa/jsPsych-in-Qualtrics65/countingstroop/img/4incon3.png,51.0,incongruent,3,image-keyboard-response,81,233145,0.0-4.0-0.70,True,0,R_21Fe5Zie1owa6uc
25,622.2000000029802,https://cdn.jsdelivr.net/gh/dvitaa/jsPsych-in-Qualtrics65/countingstroop/img/1incon3.png,51.0,incongruent,3,image-keyboard-response,80,230766,0.0-4.0-0.69,True,0,R_21Fe5Zie1owa6uc
26,631.7999999970198,https://cdn.jsdelivr.net/gh/dvitaa/jsPsych-in-Qualtrics65/countingstroop/img/1incon2.png,50.0,incongruent,2,image-keyboard-response,79,228794,0.0-4.0-0.68,True,0,R_21Fe5Zie1owa6uc
27,686.5999999940395,https://cdn.jsdelivr.net/gh/dvitaa/jsPsych-in-Qualtrics65/countingstroop/img/4incon2.png,50.0,incongruent,2,image-keyboard-response,50,178483,0.0-4.0-0.39,True,0,R_21Fe5Zie1owa6uc
28,784.4000000059605,https://cdn.jsdelivr.net/gh/dvitaa/jsPsych-in-Qualtrics65/countingstroop/img/2incon1.png,49.0,incongruent,1,image-keyboard-response,78,227117,0.0-4.0-0.67,True,0,R_21Fe5Zie1owa6uc
29,697.7999999970198,https://cdn.jsdelivr.net/gh/dvitaa/jsPsych-in-Qualtrics65/countingstroop/img/3incon1.png,49.0,incongruent,1,image-keyboard-response,76,223095,0.0-4.0-0.65,True,0,R_21Fe5Zie1owa6uc
30,764.5999999940395,https://cdn.jsdelivr.net/gh/dvitaa/jsPsych-in-Qualtrics65/countingstroop/img/4incon2.png,50.0,incongruent,2,image-keyboard-response,75,221873,0.0-4.0-0.64,True,0,R_21Fe5Zie1owa6uc
31,547.1000000089407,https://cdn.jsdelivr.net/gh/dvitaa/jsPsych-in-Qualtrics65/countingstroop/img/1incon4.png,52.0,incongruent,4,image-keyboard-response,74,219648,0.0-4.0-0.63,True,0,R_21Fe5Zie1owa6uc
32,503.40000000596046,https://cdn.jsdelivr.net/gh/dvitaa/jsPsych-in-Qualtrics65/countingstroop/img/2con.png,50.0,congruent,2,image-keyboard-response,73,218200,0.0-4.0-0.62,True,0,R_21Fe5Zie1owa6uc
33,598.8999999910593,https://cdn.jsdelivr.net/gh/dvitaa/jsPsych-in-Qualtrics65/countingstroop/img/2incon3.png,51.0,incongruent,3,image-keyboard-response,72,215981,0.0-4.0-0.61,True,0,R_21Fe5Zie1owa6uc
34,483.5,https://cdn.jsdelivr.net/gh/dvitaa/jsPsych-in-Qualtrics65/countingstroop/img/3con.png,51.0,congruent,3,image-keyboard-response,71,214410,0.0-4.0-0.60,True,0,R_21Fe5Zie1owa6uc
35,545.1000000089407,https://cdn.jsdelivr.net/gh/dvitaa/jsPsych-in-Qualtrics65/countingstroop/img/4incon1.png,49.0,incongruent,1,image-keyboard-response,70,212824,0.0-4.0-0.59,True,0,R_21Fe5Zie1owa6uc
36,649.7999999970198,https://cdn.jsdelivr.net/gh/dvitaa/jsPsych-in-Qualtrics65/countingstroop/img/3incon4.png,51.0,incongruent,4,image-keyboard-response,77,225742,0.0-4.0-0.66,False,0,R_21Fe5Zie1owa6uc
37,799.8999999910593,https://cdn.jsdelivr.net/gh/dvitaa/jsPsych-in-Qualtrics65/countingstroop/img/3incon2.png,50.0,incongruent,2,image-keyboard-response,49,175876,0.0-4.0-0.38,True,0,R_21Fe5Zie1owa6uc
38,528.5,https://cdn.jsdelivr.net/gh/dvitaa/jsPsych-in-Qualtrics65/countingstroop/img/1incon4.png,52.0,incongruent,4,image-keyboard-response,48,174062,0.0-4.0-0.37,True,0,R_21Fe5Zie1owa6uc
39,492.0,https://cdn.jsdelivr.net/gh/dvitaa/jsPsych-in-Qualtrics65/countingstroop/img/4incon3.png,51.0,incongruent,3,image-keyboard-response,47,171955,0.0-4.0-0.36,True,0,R_21Fe5Zie1owa6uc
40,681.0999999940395,https://cdn.jsdelivr.net/gh/dvitaa/jsPsych-in-Qualtrics65/countingstroop/img/2incon1.png,49.0,incongruent,1,image-keyboard-response,26,132114,0.0-4.0-0.15,True,0,R_21Fe5Zie1owa6uc
41,453.80000001192093,https://cdn.jsdelivr.net/gh/dvitaa/jsPsych-in-Qualtrics65/countingstroop/img/2con.png,50.0,congruent,2,image-keyboard-response,25,130462,0.0-4.0-0.14,True,0,R_21Fe5Zie1owa6uc
42,549.1999999880791,https://cdn.jsdelivr.net/gh/dvitaa/jsPsych-in-Qualtrics65/countingstroop/img/1incon2.png,50.0,incongruent,2,image-keyboard-response,24,128199,0.0-4.0-0.13,True,0,R_21Fe5Zie1owa6uc
43,802.7000000029802,https://cdn.jsdelivr.net/gh/dvitaa/jsPsych-in-Qualtrics65/countingstroop/img/3incon2.png,50.0,incongruent,2,image-keyboard-response,23,125956,0.0-4.0-0.12,True,0,R_21Fe5Zie1owa6uc
44,528.2000000029802,https://cdn.jsdelivr.net/gh/dvitaa/jsPsych-in-Qualtrics65/countingstroop/img/3incon4.png,52.0,incongruent,4,image-keyboard-response,22,124195,0.0-4.0-0.11,True,0,R_21Fe5Zie1owa6uc
45,487.90000000596046,https://cdn.jsdelivr.net/gh/dvitaa/jsPsych-in-Qualtrics65/countingstroop/img/1incon2.png,50.0,incongruent,2,image-keyboard-response,21,122714,0.0-4.0-0.10,True,0,R_21Fe5Zie1owa6uc
46,612.3999999910593,https://cdn.jsdelivr.net/gh/dvitaa/jsPsych-in-Qualtrics65/countingstroop/img/3con.png,51.0,congruent,3,image-keyboard-response,20,121415,0.0-4.0-0.9,True,0,R_21Fe5Zie1owa6uc
47,1086.2000000029802,https://cdn.jsdelivr.net/gh/dvitaa/jsPsych-in-Qualtrics65/countingstroop/img/4incon2.png,50.0,incongruent,2,image-keyboard-response,27,134691,0.0-4.0-0.16,True,0,R_21Fe5Zie1owa6uc
48,1071.2000000029802,https://cdn.jsdelivr.net/gh/dvitaa/jsPsych-in-Qualtrics65/countingstroop/img/3incon1.png,49.0,incongruent,1,image-keyboard-response,19,120109,0.0-4.0-0.8,True,0,R_21Fe5Zie1owa6uc
49,511.09999999403954,https://cdn.jsdelivr.net/gh/dvitaa/jsPsych-in-Qualtrics65/countingstroop/img/1incon3.png,51.0,incongruent,3,image-keyboard-response,17,115962,0.0-4.0-0.6,True,0,R_21Fe5Zie1owa6uc
50,1084.7000000029802,https://cdn.jsdelivr.net/gh/dvitaa/jsPsych-in-Qualtrics65/countingstroop/img/4incon3.png,51.0,incongruent,3,image-keyboard-response,16,113570,0.0-4.0-0.5,True,0,R_21Fe5Zie1owa6uc
51,1124.199999988079,https://cdn.jsdelivr.net/gh/dvitaa/jsPsych-in-Qualtrics65/countingstroop/img/3incon2.png,50.0,incongruent,2,image-keyboard-response,15,111028,0.0-4.0-0.4,True,0,R_21Fe5Zie1owa6uc
52,749.3999999910593,https://cdn.jsdelivr.net/gh/dvitaa/jsPsych-in-Qualtrics65/countingstroop/img/4con.png,52.0,congruent,4,image-keyboard-response,14,107940,0.0-4.0-0.3,True,0,R_21Fe5Zie1owa6uc
53,1210.7000000029802,https://cdn.jsdelivr.net/gh/dvitaa/jsPsych-in-Qualtrics65/countingstroop/img/2incon4.png,52.0,incongruent,4,image-keyboard-response,13,105790,0.0-4.0-0.2,True,0,R_21Fe5Zie1owa6uc
54,723.5,https://cdn.jsdelivr.net/gh/dvitaa/jsPsych-in-Qualtrics65/countingstroop/img/1incon3.png,51.0,incongruent,3,image-keyboard-response,12,103517,0.0-4.0-0.1,True,0,R_21Fe5Zie1owa6uc
55,1243.2999999970198,https://cdn.jsdelivr.net/gh/dvitaa/jsPsych-in-Qualtrics65/countingstroop/img/3incon4.png,52.0,incongruent,4,image-keyboard-response,11,101575,0.0-4.0-0.0,True,0,R_21Fe5Zie1owa6uc
56,743.2999999970198,https://cdn.jsdelivr.net/gh/dvitaa/jsPsych-in-Qualtrics65/countingstroop/img/1incon4.png,52.0,incongruent,4,image-keyboard-response,18,117740,0.0-4.0-0.7,True,0,R_21Fe5Zie1owa6uc
57,630.2999999970198,https://cdn.jsdelivr.net/gh/dvitaa/jsPsych-in-Qualtrics65/countingstroop/img/2incon1.png,49.0,incongruent,1,image-keyboard-response,87,246340,0.0-4.0-0.76,True,0,R_21Fe5Zie1owa6uc
58,576.7999999970198,https://cdn.jsdelivr.net/gh/dvitaa/jsPsych-in-Qualtrics65/countingstroop/img/4incon2.png,50.0,incongruent,2,image-keyboard-response,28,136714,0.0-4.0-0.17,True,0,R_21Fe5Zie1owa6uc
59,557.7000000029802,https://cdn.jsdelivr.net/gh/dvitaa/jsPsych-in-Qualtrics65/countingstroop/img/3incon1.png,49.0,incongruent,1,image-keyboard-response,30,140181,0.0-4.0-0.19,True,0,R_21Fe5Zie1owa6uc
60,670.0,https://cdn.jsdelivr.net/gh/dvitaa/jsPsych-in-Qualtrics65/countingstroop/img/1incon4.png,52.0,incongruent,4,image-keyboard-response,46,170310,0.0-4.0-0.35,True,0,R_21Fe5Zie1owa6uc
61,534.9000000059605,https://cdn.jsdelivr.net/gh/dvitaa/jsPsych-in-Qualtrics65/countingstroop/img/1con.png,49.0,congruent,1,image-keyboard-response,45,168327,0.0-4.0-0.34,True,0,R_21Fe5Zie1owa6uc
62,608.4000000059605,https://cdn.jsdelivr.net/gh/dvitaa/jsPsych-in-Qualtrics65/countingstroop/img/3incon2.png,50.0,incongruent,2,image-keyboard-response,44,166438,0.0-4.0-0.33,True,0,R_21Fe5Zie1owa6uc
63,512.6999999880791,https://cdn.jsdelivr.net/gh/dvitaa/jsPsych-in-Qualtrics65/countingstroop/img/4con.png,52.0,congruent,4,image-keyboard-response,43,164945,0.0-4.0-0.32,True,0,R_21Fe5Zie1owa6uc
64,662.2999999970198,https://cdn.jsdelivr.net/gh/dvitaa/jsPsych-in-Qualtrics65/countingstroop/img/3con.png,51.0,congruent,3,image-keyboard-response,42,163452,0.0-4.0-0.31,True,0,R_21Fe5Zie1owa6uc
65,484.59999999403954,https://cdn.jsdelivr.net/gh/dvitaa/jsPsych-in-Qualtrics65/countingstroop/img/1con.png,49.0,congruent,1,image-keyboard-response,41,161359,0.0-4.0-0.30,True,0,R_21Fe5Zie1owa6uc
66,1153.0999999940395,https://cdn.jsdelivr.net/gh/dvitaa/jsPsych-in-Qualtrics65/countingstroop/img/4incon1.png,49.0,incongruent,1,image-keyboard-response,40,158932,0.0-4.0-0.29,True,0,R_21Fe5Zie1owa6uc
67,610.4000000059605,https://cdn.jsdelivr.net/gh/dvitaa/jsPsych-in-Qualtrics65/countingstroop/img/4incon3.png,51.0,incongruent,3,image-keyboard-response,29,138447,0.0-4.0-0.18,True,0,R_21Fe5Zie1owa6uc
68,582.7999999970198,https://cdn.jsdelivr.net/gh/dvitaa/jsPsych-in-Qualtrics65/countingstroop/img/3incon2.png,50.0,incongruent,2,image-keyboard-response,39,156597,0.0-4.0-0.28,True,0,R_21Fe5Zie1owa6uc
69,1206.800000011921,https://cdn.jsdelivr.net/gh/dvitaa/jsPsych-in-Qualtrics65/countingstroop/img/2incon3.png,51.0,incongruent,3,image-keyboard-response,37,153164,0.0-4.0-0.26,True,0,R_21Fe5Zie1owa6uc
70,626.2000000029802,https://cdn.jsdelivr.net/gh/dvitaa/jsPsych-in-Qualtrics65/countingstroop/img/1incon3.png,51.0,incongruent,3,image-keyboard-response,36,150847,0.0-4.0-0.25,True,0,R_21Fe5Zie1owa6uc
71,711.3999999910593,https://cdn.jsdelivr.net/gh/dvitaa/jsPsych-in-Qualtrics65/countingstroop/img/1incon4.png,52.0,incongruent,4,image-keyboard-response,35,149251,0.0-4.0-0.24,True,0,R_21Fe5Zie1owa6uc
72,472.20000000298023,https://cdn.jsdelivr.net/gh/dvitaa/jsPsych-in-Qualtrics65/countingstroop/img/3incon2.png,51.0,incongruent,2,image-keyboard-response,34,147136,0.0-4.0-0.23,False,0,R_21Fe5Zie1owa6uc
73,498.90000000596046,https://cdn.jsdelivr.net/gh/dvitaa/jsPsych-in-Qualtrics65/countingstroop/img/3incon2.png,50.0,incongruent,2,image-keyboard-response,33,145738,0.0-4.0-0.22,True,0,R_21Fe5Zie1owa6uc
74,661.8999999910593,https://cdn.jsdelivr.net/gh/dvitaa/jsPsych-in-Qualtrics65/countingstroop/img/2incon1.png,49.0,incongruent,1,image-keyboard-response,32,143406,0.0-4.0-0.21,True,0,R_21Fe5Zie1owa6uc
75,401.20000000298023,https://cdn.jsdelivr.net/gh/dvitaa/jsPsych-in-Qualtrics65/countingstroop/img/1con.png,49.0,congruent,1,image-keyboard-response,31,142184,0.0-4.0-0.20,True,0,R_21Fe5Zie1owa6uc
76,609.9000000059605,https://cdn.jsdelivr.net/gh/dvitaa/jsPsych-in-Qualtrics65/countingstroop/img/2con.png,50.0,congruent,2,image-keyboard-response,38,154522,0.0-4.0-0.27,True,0,R_21Fe5Zie1owa6uc
77,641.9000000059605,https://cdn.jsdelivr.net/gh/dvitaa/jsPsych-in-Qualtrics65/countingstroop/img/4incon1.png,49.0,incongruent,1,image-keyboard-response,88,248315,0.0-4.0-0.77,True,0,R_21Fe5Zie1owa6uc
78,473.30000001192093,https://cdn.jsdelivr.net/gh/dvitaa/jsPsych-in-Qualtrics65/countingstroop/img/3incon2.png,51.0,incongruent,2,image-keyboard-response,89,250603,0.0-4.0-0.78,False,0,R_21Fe5Zie1owa6uc
79,907.0999999940395,https://cdn.jsdelivr.net/gh/dvitaa/jsPsych-in-Qualtrics65/countingstroop/img/4con.png,52.0,congruent,4,image-keyboard-response,129,326092,0.0-4.0-0.118,True,0,R_21Fe5Zie1owa6uc
80,1319.2999999970198,https://cdn.jsdelivr.net/gh/dvitaa/jsPsych-in-Qualtrics65/countingstroop/img/1incon3.png,51.0,incongruent,3,image-keyboard-response,145,354368,0.0-4.0-0.134,True,0,R_21Fe5Zie1owa6uc
81,544.2999999970198,https://cdn.jsdelivr.net/gh/dvitaa/jsPsych-in-Qualtrics65/countingstroop/img/1incon2.png,49.0,incongruent,2,image-keyboard-response,144,351969,0.0-4.0-0.133,False,0,R_21Fe5Zie1owa6uc
82,531.2000000029802,https://cdn.jsdelivr.net/gh/dvitaa/jsPsych-in-Qualtrics65/countingstroop/img/2incon4.png,52.0,incongruent,4,image-keyboard-response,143,350335,0.0-4.0-0.132,True,0,R_21Fe5Zie1owa6uc
83,370.0,https://cdn.jsdelivr.net/gh/dvitaa/jsPsych-in-Qualtrics65/countingstroop/img/2incon1.png,49.0,incongruent,1,image-keyboard-response,142,348209,0.0-4.0-0.131,True,0,R_21Fe5Zie1owa6uc
84,579.6999999880791,https://cdn.jsdelivr.net/gh/dvitaa/jsPsych-in-Qualtrics65/countingstroop/img/1con.png,49.0,congruent,1,image-keyboard-response,141,347285,0.0-4.0-0.130,True,0,R_21Fe5Zie1owa6uc
85,873.2000000029802,https://cdn.jsdelivr.net/gh/dvitaa/jsPsych-in-Qualtrics65/countingstroop/img/2con.png,50.0,congruent,2,image-keyboard-response,140,345766,0.0-4.0-0.129,True,0,R_21Fe5Zie1owa6uc
86,506.3999999910593,https://cdn.jsdelivr.net/gh/dvitaa/jsPsych-in-Qualtrics65/countingstroop/img/4con.png,52.0,congruent,4,image-keyboard-response,139,344099,0.0-4.0-0.128,True,0,R_21Fe5Zie1owa6uc
87,637.7000000029802,https://cdn.jsdelivr.net/gh/dvitaa/jsPsych-in-Qualtrics65/countingstroop/img/3incon4.png,52.0,incongruent,4,image-keyboard-response,138,342621,0.0-4.0-0.127,True,0,R_21Fe5Zie1owa6uc
88,755.3999999910593,https://cdn.jsdelivr.net/gh/dvitaa/jsPsych-in-Qualtrics65/countingstroop/img/1con.png,49.0,congruent,1,image-keyboard-response,137,340763,0.0-4.0-0.126,True,0,R_21Fe5Zie1owa6uc
89,615.4000000059605,https://cdn.jsdelivr.net/gh/dvitaa/jsPsych-in-Qualtrics65/countingstroop/img/4con.png,52.0,congruent,4,image-keyboard-response,136,339246,0.0-4.0-0.125,True,0,R_21Fe5Zie1owa6uc
90,664.4000000059605,https://cdn.jsdelivr.net/gh/dvitaa/jsPsych-in-Qualtrics65/countingstroop/img/4incon3.png,51.0,incongruent,3,image-keyboard-response,135,337707,0.0-4.0-0.124,True,0,R_21Fe5Zie1owa6uc
91,575.0999999940395,https://cdn.jsdelivr.net/gh/dvitaa/jsPsych-in-Qualtrics65/countingstroop/img/1incon4.png,52.0,incongruent,4,image-keyboard-response,134,335961,0.0-4.0-0.123,True,0,R_21Fe5Zie1owa6uc
92,660.7000000029802,https://cdn.jsdelivr.net/gh/dvitaa/jsPsych-in-Qualtrics65/countingstroop/img/2con.png,50.0,congruent,2,image-keyboard-response,133,333549,0.0-4.0-0.122,True,0,R_21Fe5Zie1owa6uc
93,716.8000000119209,https://cdn.jsdelivr.net/gh/dvitaa/jsPsych-in-Qualtrics65/countingstroop/img/2incon4.png,52.0,incongruent,4,image-keyboard-response,132,332236,0.0-4.0-0.121,True,0,R_21Fe5Zie1owa6uc
94,584.7000000029802,https://cdn.jsdelivr.net/gh/dvitaa/jsPsych-in-Qualtrics65/countingstroop/img/1incon2.png,50.0,incongruent,2,image-keyboard-response,131,330085,0.0-4.0-0.120,True,0,R_21Fe5Zie1owa6uc
95,1215.7000000029802,https://cdn.jsdelivr.net/gh/dvitaa/jsPsych-in-Qualtrics65/countingstroop/img/3incon2.png,50.0,incongruent,2,image-keyboard-response,146,357187,0.0-4.0-0.135,True,0,R_21Fe5Zie1owa6uc
96,646.6000000089407,https://cdn.jsdelivr.net/gh/dvitaa/jsPsych-in-Qualtrics65/countingstroop/img/4incon2.png,50.0,incongruent,2,image-keyboard-response,147,359600,0.0-4.0-0.136,True,0,R_21Fe5Zie1owa6uc
97,697.0999999940395,https://cdn.jsdelivr.net/gh/dvitaa/jsPsych-in-Qualtrics65/countingstroop/img/3incon1.png,49.0,incongruent,1,image-keyboard-response,148,361713,0.0-4.0-0.137,True,0,R_21Fe5Zie1owa6uc
98,939.5,https://cdn.jsdelivr.net/gh/dvitaa/jsPsych-in-Qualtrics65/countingstroop/img/4incon3.png,51.0,incongruent,3,image-keyboard-response,149,363507,0.0-4.0-0.138,True,0,R_21Fe5Zie1owa6uc
99,712.9000000059605,https://cdn.jsdelivr.net/gh/dvitaa/jsPsych-in-Qualtrics65/countingstroop/img/3incon1.png,49.0,incongruent,1,image-keyboard-response,165,393083,0.0-4.0-0.154,True,0,R_21Fe5Zie1owa6uc
100,843.3999999910593,https://cdn.jsdelivr.net/gh/dvitaa/jsPsych-in-Qualtrics65/countingstroop/img/4con.png,52.0,congruent,4,image-keyboard-response,164,391037,0.0-4.0-0.153,True,0,R_21Fe5Zie1owa6uc
101,990.7000000029802,https://cdn.jsdelivr.net/gh/dvitaa/jsPsych-in-Qualtrics65/countingstroop/img/3con.png,51.0,congruent,3,image-keyboard-response,163,389135,0.0-4.0-0.152,True,0,R_21Fe5Zie1owa6uc
102,875.0,https://cdn.jsdelivr.net/gh/dvitaa/jsPsych-in-Qualtrics65/countingstroop/img/4incon1.png,49.0,incongruent,1,image-keyboard-response,162,386929,0.0-4.0-0.151,True,0,R_21Fe5Zie1owa6uc
103,626.2000000029802,https://cdn.jsdelivr.net/gh/dvitaa/jsPsych-in-Qualtrics65/countingstroop/img/1incon2.png,50.0,incongruent,2,image-keyboard-response,161,385117,0.0-4.0-0.150,True,0,R_21Fe5Zie1owa6uc
104,925.2999999970198,https://cdn.jsdelivr.net/gh/dvitaa/jsPsych-in-Qualtrics65/countingstroop/img/4con.png,52.0,congruent,4,image-keyboard-response,160,383708,0.0-4.0-0.149,True,0,R_21Fe5Zie1owa6uc
105,439.6000000089407,https://cdn.jsdelivr.net/gh/dvitaa/jsPsych-in-Qualtrics65/countingstroop/img/1con.png,49.0,congruent,1,image-keyboard-response,159,381679,0.0-4.0-0.148,True,0,R_21Fe5Zie1owa6uc
106,1041.0999999940395,https://cdn.jsdelivr.net/gh/dvitaa/jsPsych-in-Qualtrics65/countingstroop/img/2incon3.png,51.0,incongruent,3,image-keyboard-response,130,327742,0.0-4.0-0.119,True,0,R_21Fe5Zie1owa6uc
107,419.3999999910593,https://cdn.jsdelivr.net/gh/dvitaa/jsPsych-in-Qualtrics65/countingstroop/img/1con.png,49.0,congruent,1,image-keyboard-response,158,379568,0.0-4.0-0.147,True,0,R_21Fe5Zie1owa6uc
108,579.2999999970198,https://cdn.jsdelivr.net/gh/dvitaa/jsPsych-in-Qualtrics65/countingstroop/img/4incon2.png,50.0,incongruent,2,image-keyboard-response,156,376569,0.0-4.0-0.145,True,0,R_21Fe5Zie1owa6uc
109,571.9000000059605,https://cdn.jsdelivr.net/gh/dvitaa/jsPsych-in-Qualtrics65/countingstroop/img/3incon1.png,49.0,incongruent,1,image-keyboard-response,155,374877,0.0-4.0-0.144,True,0,R_21Fe5Zie1owa6uc
110,511.09999999403954,https://cdn.jsdelivr.net/gh/dvitaa/jsPsych-in-Qualtrics65/countingstroop/img/3con.png,51.0,congruent,3,image-keyboard-response,154,373512,0.0-4.0-0.143,True,0,R_21Fe5Zie1owa6uc
111,750.5999999940395,https://cdn.jsdelivr.net/gh/dvitaa/jsPsych-in-Qualtrics65/countingstroop/img/2con.png,50.0,congruent,2,image-keyboard-response,153,371533,0.0-4.0-0.142,True,0,R_21Fe5Zie1owa6uc
112,648.1000000089407,https://cdn.jsdelivr.net/gh/dvitaa/jsPsych-in-Qualtrics65/countingstroop/img/4incon3.png,51.0,incongruent,3,image-keyboard-response,152,370024,0.0-4.0-0.141,True,0,R_21Fe5Zie1owa6uc
113,845.2999999970198,https://cdn.jsdelivr.net/gh/dvitaa/jsPsych-in-Qualtrics65/countingstroop/img/4con.png,52.0,congruent,4,image-keyboard-response,151,367829,0.0-4.0-0.140,True,0,R_21Fe5Zie1owa6uc
114,769.0,https://cdn.jsdelivr.net/gh/dvitaa/jsPsych-in-Qualtrics65/countingstroop/img/3incon1.png,49.0,incongruent,1,image-keyboard-response,150,365900,0.0-4.0-0.139,True,0,R_21Fe5Zie1owa6uc
115,508.5,https://cdn.jsdelivr.net/gh/dvitaa/jsPsych-in-Qualtrics65/countingstroop/img/1con.png,49.0,congruent,1,image-keyboard-response,157,378622,0.0-4.0-0.146,True,0,R_21Fe5Zie1owa6uc
116,623.6000000089407,https://cdn.jsdelivr.net/gh/dvitaa/jsPsych-in-Qualtrics65/countingstroop/img/2incon1.png,49.0,incongruent,1,image-keyboard-response,90,252466,0.0-4.0-0.79,True,0,R_21Fe5Zie1owa6uc
117,603.3000000119209,https://cdn.jsdelivr.net/gh/dvitaa/jsPsych-in-Qualtrics65/countingstroop/img/3incon1.png,49.0,incongruent,1,image-keyboard-response,128,324085,0.0-4.0-0.117,True,0,R_21Fe5Zie1owa6uc
118,606.6999999880791,https://cdn.jsdelivr.net/gh/dvitaa/jsPsych-in-Qualtrics65/countingstroop/img/2incon4.png,52.0,incongruent,4,image-keyboard-response,127,321620,0.0-4.0-0.116,True,0,R_21Fe5Zie1owa6uc
119,561.2000000029802,https://cdn.jsdelivr.net/gh/dvitaa/jsPsych-in-Qualtrics65/countingstroop/img/4incon1.png,49.0,incongruent,1,image-keyboard-response,106,283173,0.0-4.0-0.95,True,0,R_21Fe5Zie1owa6uc
120,664.7999999970198,https://cdn.jsdelivr.net/gh/dvitaa/jsPsych-in-Qualtrics65/countingstroop/img/3incon2.png,50.0,incongruent,2,image-keyboard-response,105,282041,0.0-4.0-0.94,True,0,R_21Fe5Zie1owa6uc
121,591.0,https://cdn.jsdelivr.net/gh/dvitaa/jsPsych-in-Qualtrics65/countingstroop/img/3incon1.png,49.0,incongruent,1,image-keyboard-response,104,280389,0.0-4.0-0.93,True,0,R_21Fe5Zie1owa6uc
122,518.4000000059605,https://cdn.jsdelivr.net/gh/dvitaa/jsPsych-in-Qualtrics65/countingstroop/img/4incon1.png,49.0,incongruent,1,image-keyboard-response,103,278428,0.0-4.0-0.92,True,0,R_21Fe5Zie1owa6uc
123,544.8999999910593,https://cdn.jsdelivr.net/gh/dvitaa/jsPsych-in-Qualtrics65/countingstroop/img/4con.png,52.0,congruent,4,image-keyboard-response,102,276083,0.0-4.0-0.91,True,0,R_21Fe5Zie1owa6uc
124,657.7000000029802,https://cdn.jsdelivr.net/gh/dvitaa/jsPsych-in-Qualtrics65/countingstroop/img/1incon2.png,50.0,incongruent,2,image-keyboard-response,101,273971,0.0-4.0-0.90,True,0,R_21Fe5Zie1owa6uc
125,690.3000000119209,https://cdn.jsdelivr.net/gh/dvitaa/jsPsych-in-Qualtrics65/countingstroop/img/2incon3.png,51.0,incongruent,3,image-keyboard-response,100,272106,0.0-4.0-0.89,True,0,R_21Fe5Zie1owa6uc
126,730.7999999970198,https://cdn.jsdelivr.net/gh/dvitaa/jsPsych-in-Qualtrics65/countingstroop/img/4incon3.png,51.0,incongruent,3,image-keyboard-response,107,284557,0.0-4.0-0.96,True,0,R_21Fe5Zie1owa6uc
127,847.5,https://cdn.jsdelivr.net/gh/dvitaa/jsPsych-in-Qualtrics65/countingstroop/img/3incon1.png,49.0,incongruent,1,image-keyboard-response,99,270507,0.0-4.0-0.88,True,0,R_21Fe5Zie1owa6uc
128,664.8000000119209,https://cdn.jsdelivr.net/gh/dvitaa/jsPsych-in-Qualtrics65/countingstroop/img/4incon2.png,50.0,incongruent,2,image-keyboard-response,97,266332,0.0-4.0-0.86,True,0,R_21Fe5Zie1owa6uc
129,587.2000000029802,https://cdn.jsdelivr.net/gh/dvitaa/jsPsych-in-Qualtrics65/countingstroop/img/2incon1.png,49.0,incongruent,1,image-keyboard-response,96,265027,0.0-4.0-0.85,True,0,R_21Fe5Zie1owa6uc
130,639.7000000029802,https://cdn.jsdelivr.net/gh/dvitaa/jsPsych-in-Qualtrics65/countingstroop/img/1incon4.png,52.0,incongruent,4,image-keyboard-response,95,262650,0.0-4.0-0.84,True,0,R_21Fe5Zie1owa6uc
131,886.0,https://cdn.jsdelivr.net/gh/dvitaa/jsPsych-in-Qualtrics65/countingstroop/img/2incon3.png,51.0,incongruent,3,image-keyboard-response,94,260828,0.0-4.0-0.83,True,0,R_21Fe5Zie1owa6uc
132,523.3999999910593,https://cdn.jsdelivr.net/gh/dvitaa/jsPsych-in-Qualtrics65/countingstroop/img/4con.png,52.0,congruent,4,image-keyboard-response,93,259319,0.0-4.0-0.82,True,0,R_21Fe5Zie1owa6uc
133,600.5999999940395,https://cdn.jsdelivr.net/gh/dvitaa/jsPsych-in-Qualtrics65/countingstroop/img/2incon3.png,51.0,incongruent,3,image-keyboard-response,92,256972,0.0-4.0-0.81,True,0,R_21Fe5Zie1owa6uc
134,767.1000000089407,https://cdn.jsdelivr.net/gh/dvitaa/jsPsych-in-Qualtrics65/countingstroop/img/1incon2.png,50.0,incongruent,2,image-keyboard-response,91,254557,0.0-4.0-0.80,True,0,R_21Fe5Zie1owa6uc
135,654.5999999940395,https://cdn.jsdelivr.net/gh/dvitaa/jsPsych-in-Qualtrics65/countingstroop/img/2incon3.png,51.0,incongruent,3,image-keyboard-response,98,268099,0.0-4.0-0.87,True,0,R_21Fe5Zie1owa6uc
136,839.2999999970198,https://cdn.jsdelivr.net/gh/dvitaa/jsPsych-in-Qualtrics65/countingstroop/img/3incon4.png,52.0,incongruent,4,image-keyboard-response,166,394842,0.0-4.0-0.155,True,0,R_21Fe5Zie1owa6uc
137,787.2999999970198,https://cdn.jsdelivr.net/gh/dvitaa/jsPsych-in-Qualtrics65/countingstroop/img/2con.png,50.0,congruent,2,image-keyboard-response,108,286260,0.0-4.0-0.97,True,0,R_21Fe5Zie1owa6uc
138,536.1000000089407,https://cdn.jsdelivr.net/gh/dvitaa/jsPsych-in-Qualtrics65/countingstroop/img/1con.png,49.0,congruent,1,image-keyboard-response,110,289843,0.0-4.0-0.99,True,0,R_21Fe5Zie1owa6uc
139,555.7999999970198,https://cdn.jsdelivr.net/gh/dvitaa/jsPsych-in-Qualtrics65/countingstroop/img/2incon4.png,52.0,incongruent,4,image-keyboard-response,126,320424,0.0-4.0-0.115,True,0,R_21Fe5Zie1owa6uc
140,675.4000000059605,https://cdn.jsdelivr.net/gh/dvitaa/jsPsych-in-Qualtrics65/countingstroop/img/2incon4.png,52.0,incongruent,4,image-keyboard-response,125,318409,0.0-4.0-0.114,True,0,R_21Fe5Zie1owa6uc
141,1254.6000000089407,https://cdn.jsdelivr.net/gh/dvitaa/jsPsych-in-Qualtrics65/countingstroop/img/2con.png,50.0,congruent,2,image-keyboard-response,124,316070,0.0-4.0-0.113,True,0,R_21Fe5Zie1owa6uc
142,668.7000000029802,https://cdn.jsdelivr.net/gh/dvitaa/jsPsych-in-Qualtrics65/countingstroop/img/1incon3.png,51.0,incongruent,3,image-keyboard-response,123,313054,0.0-4.0-0.112,True,0,R_21Fe5Zie1owa6uc
143,527.2000000029802,https://cdn.jsdelivr.net/gh/dvitaa/jsPsych-in-Qualtrics65/countingstroop/img/1incon2.png,50.0,incongruent,2,image-keyboard-response,122,311791,0.0-4.0-0.111,True,0,R_21Fe5Zie1owa6uc
144,820.3999999910593,https://cdn.jsdelivr.net/gh/dvitaa/jsPsych-in-Qualtrics65/countingstroop/img/4incon2.png,50.0,incongruent,2,image-keyboard-response,121,309853,0.0-4.0-0.110,True,0,R_21Fe5Zie1owa6uc
145,592.7000000029802,https://cdn.jsdelivr.net/gh/dvitaa/jsPsych-in-Qualtrics65/countingstroop/img/4con.png,52.0,congruent,4,image-keyboard-response,120,307362,0.0-4.0-0.109,True,0,R_21Fe5Zie1owa6uc
146,769.0,https://cdn.jsdelivr.net/gh/dvitaa/jsPsych-in-Qualtrics65/countingstroop/img/3incon1.png,49.0,incongruent,1,image-keyboard-response,109,287653,0.0-4.0-0.98,True,0,R_21Fe5Zie1owa6uc
147,657.9000000059605,https://cdn.jsdelivr.net/gh/dvitaa/jsPsych-in-Qualtrics65/countingstroop/img/3incon1.png,49.0,incongruent,1,image-keyboard-response,119,306105,0.0-4.0-0.108,True,0,R_21Fe5Zie1owa6uc
148,543.7000000029802,https://cdn.jsdelivr.net/gh/dvitaa/jsPsych-in-Qualtrics65/countingstroop/img/1incon2.png,50.0,incongruent,2,image-keyboard-response,117,302250,0.0-4.0-0.106,True,0,R_21Fe5Zie1owa6uc
149,544.7999999970198,https://cdn.jsdelivr.net/gh/dvitaa/jsPsych-in-Qualtrics65/countingstroop/img/4incon1.png,49.0,incongruent,1,image-keyboard-response,116,301143,0.0-4.0-0.105,True,0,R_21Fe5Zie1owa6uc
150,707.8999999910593,https://cdn.jsdelivr.net/gh/dvitaa/jsPsych-in-Qualtrics65/countingstroop/img/2incon3.png,51.0,incongruent,3,image-keyboard-response,115,299428,0.0-4.0-0.104,True,0,R_21Fe5Zie1owa6uc
151,567.2000000029802,https://cdn.jsdelivr.net/gh/dvitaa/jsPsych-in-Qualtrics65/countingstroop/img/2incon3.png,51.0,incongruent,3,image-keyboard-response,114,296858,0.0-4.0-0.103,True,0,R_21Fe5Zie1owa6uc
152,579.3999999910593,https://cdn.jsdelivr.net/gh/dvitaa/jsPsych-in-Qualtrics65/countingstroop/img/4con.png,52.0,congruent,4,image-keyboard-response,113,295451,0.0-4.0-0.102,True,0,R_21Fe5Zie1owa6uc
153,691.0,https://cdn.jsdelivr.net/gh/dvitaa/jsPsych-in-Qualtrics65/countingstroop/img/4incon3.png,51.0,incongruent,3,image-keyboard-response,112,293088,0.0-4.0-0.101,True,0,R_21Fe5Zie1owa6uc
154,586.9000000059605,https://cdn.jsdelivr.net/gh/dvitaa/jsPsych-in-Qualtrics65/countingstroop/img/3incon4.png,52.0,incongruent,4,image-keyboard-response,111,291546,0.0-4.0-0.100,True,0,R_21Fe5Zie1owa6uc
155,617.0,https://cdn.jsdelivr.net/gh/dvitaa/jsPsych-in-Qualtrics65/countingstroop/img/3incon4.png,52.0,incongruent,4,image-keyboard-response,118,303664,0.0-4.0-0.107,True,0,R_21Fe5Zie1owa6uc
156,567.2000000029802,https://cdn.jsdelivr.net/gh/dvitaa/jsPsych-in-Qualtrics65/countingstroop/img/4incon3.png,51.0,incongruent,3,image-keyboard-response,167,396721,0.0-4.0-0.156,True,0,R_21Fe5Zie1owa6uc
157,922.0,https://cdn.jsdelivr.net/gh/dvitaa/jsPsych-in-Qualtrics65/countingstroop/img/1incon4.png,52.0,incongruent,4,image-keyboard-response,172,372672,0.0-4.0-0.161,True,0,R_3CZZ2kfZiHqB8kL
158,921.0,https://cdn.jsdelivr.net/gh/dvitaa/jsPsych-in-Qualtrics65/countingstroop/img/2incon3.png,51.0,incongruent,3,image-keyboard-response,171,370803,0.0-4.0-0.160,True,0,R_3CZZ2kfZiHqB8kL
159,1184.9999999997672,https://cdn.jsdelivr.net/gh/dvitaa/jsPsych-in-Qualtrics65/countingstroop/img/2incon3.png,51.0,incongruent,3,image-keyboard-response,11,53370,0.0-4.0-0.0,True,0,R_3CZZ2kfZiHqB8kL
160,595.0,https://cdn.jsdelivr.net/gh/dvitaa/jsPsych-in-Qualtrics65/countingstroop/img/3incon2.png,50.0,incongruent,2,image-keyboard-response,169,366111,0.0-4.0-0.158,True,0,R_3CZZ2kfZiHqB8kL
161,654.0,https://cdn.jsdelivr.net/gh/dvitaa/jsPsych-in-Qualtrics65/countingstroop/img/2incon3.png,51.0,incongruent,3,image-keyboard-response,68,167405,0.0-4.0-0.57,True,0,R_3CZZ2kfZiHqB8kL
162,739.0,https://cdn.jsdelivr.net/gh/dvitaa/jsPsych-in-Qualtrics65/countingstroop/img/3incon1.png,49.0,incongruent,1,image-keyboard-response,67,166096,0.0-4.0-0.56,True,0,R_3CZZ2kfZiHqB8kL
163,585.0,https://cdn.jsdelivr.net/gh/dvitaa/jsPsych-in-Qualtrics65/countingstroop/img/2incon1.png,49.0,incongruent,1,image-keyboard-response,66,164653,0.0-4.0-0.55,True,0,R_3CZZ2kfZiHqB8kL
164,1321.0000000002328,https://cdn.jsdelivr.net/gh/dvitaa/jsPsych-in-Qualtrics65/countingstroop/img/3incon2.png,50.0,incongruent,2,image-keyboard-response,65,163457,0.0-4.0-0.54,True,0,R_3CZZ2kfZiHqB8kL
165,758.0,https://cdn.jsdelivr.net/gh/dvitaa/jsPsych-in-Qualtrics65/countingstroop/img/2incon4.png,52.0,incongruent,4,image-keyboard-response,64,160576,0.0-4.0-0.53,True,0,R_3CZZ2kfZiHqB8kL
166,783.0,https://cdn.jsdelivr.net/gh/dvitaa/jsPsych-in-Qualtrics65/countingstroop/img/3incon1.png,49.0,incongruent,1,image-keyboard-response,63,159224,0.0-4.0-0.52,True,0,R_3CZZ2kfZiHqB8kL
167,855.0,https://cdn.jsdelivr.net/gh/dvitaa/jsPsych-in-Qualtrics65/countingstroop/img/2incon4.png,52.0,incongruent,4,image-keyboard-response,62,157786,0.0-4.0-0.51,True,0,R_3CZZ2kfZiHqB8kL
168,586.0,https://cdn.jsdelivr.net/gh/dvitaa/jsPsych-in-Qualtrics65/countingstroop/img/2con.png,50.0,congruent,2,image-keyboard-response,69,168938,0.0-4.0-0.58,True,0,R_3CZZ2kfZiHqB8kL
169,965.0,https://cdn.jsdelivr.net/gh/dvitaa/jsPsych-in-Qualtrics65/countingstroop/img/3incon1.png,49.0,incongruent,1,image-keyboard-response,61,155415,0.0-4.0-0.50,True,0,R_3CZZ2kfZiHqB8kL
170,910.0,https://cdn.jsdelivr.net/gh/dvitaa/jsPsych-in-Qualtrics65/countingstroop/img/4incon1.png,49.0,incongruent,1,image-keyboard-response,59,150898,0.0-4.0-0.48,True,0,R_3CZZ2kfZiHqB8kL
171,,https://cdn.jsdelivr.net/gh/dvitaa/jsPsych-in-Qualtrics65/countingstroop/img/4con.png,,congruent,4,image-keyboard-response,58,149184,0.0-4.0-0.47,False,0,R_3CZZ2kfZiHqB8kL
172,633.9999999997672,https://cdn.jsdelivr.net/gh/dvitaa/jsPsych-in-Qualtrics65/countingstroop/img/3con.png,51.0,congruent,3,image-keyboard-response,57,147091,0.0-4.0-0.46,True,0,R_3CZZ2kfZiHqB8kL
173,864.0,https://cdn.jsdelivr.net/gh/dvitaa/jsPsych-in-Qualtrics65/countingstroop/img/3incon1.png,51.0,incongruent,1,image-keyboard-response,56,144607,0.0-4.0-0.45,False,0,R_3CZZ2kfZiHqB8kL
174,783.0,https://cdn.jsdelivr.net/gh/dvitaa/jsPsych-in-Qualtrics65/countingstroop/img/2con.png,50.0,congruent,2,image-keyboard-response,55,142358,0.0-4.0-0.44,True,0,R_3CZZ2kfZiHqB8kL
175,668.0000000002328,https://cdn.jsdelivr.net/gh/dvitaa/jsPsych-in-Qualtrics65/countingstroop/img/2incon3.png,51.0,incongruent,3,image-keyboard-response,54,140745,0.0-4.0-0.43,True,0,R_3CZZ2kfZiHqB8kL
176,687.0,https://cdn.jsdelivr.net/gh/dvitaa/jsPsych-in-Qualtrics65/countingstroop/img/1incon2.png,50.0,incongruent,2,image-keyboard-response,53,139181,0.0-4.0-0.42,True,0,R_3CZZ2kfZiHqB8kL
177,956.0,https://cdn.jsdelivr.net/gh/dvitaa/jsPsych-in-Qualtrics65/countingstroop/img/1incon4.png,52.0,incongruent,4,image-keyboard-response,60,152524,0.0-4.0-0.49,True,0,R_3CZZ2kfZiHqB8kL
178,702.0,https://cdn.jsdelivr.net/gh/dvitaa/jsPsych-in-Qualtrics65/countingstroop/img/1incon3.png,51.0,incongruent,3,image-keyboard-response,52,137891,0.0-4.0-0.41,True,0,R_3CZZ2kfZiHqB8kL
179,480.0,https://cdn.jsdelivr.net/gh/dvitaa/jsPsych-in-Qualtrics65/countingstroop/img/2con.png,50.0,congruent,2,image-keyboard-response,70,170932,0.0-4.0-0.59,True,0,R_3CZZ2kfZiHqB8kL
180,788.0,https://cdn.jsdelivr.net/gh/dvitaa/jsPsych-in-Qualtrics65/countingstroop/img/1incon4.png,52.0,incongruent,4,image-keyboard-response,72,174185,0.0-4.0-0.61,True,0,R_3CZZ2kfZiHqB8kL
181,632.0,https://cdn.jsdelivr.net/gh/dvitaa/jsPsych-in-Qualtrics65/countingstroop/img/1incon2.png,50.0,incongruent,2,image-keyboard-response,88,205538,0.0-4.0-0.77,True,0,R_3CZZ2kfZiHqB8kL
182,879.9999999997672,https://cdn.jsdelivr.net/gh/dvitaa/jsPsych-in-Qualtrics65/countingstroop/img/2incon4.png,52.0,incongruent,4,image-keyboard-response,87,203204,0.0-4.0-0.76,True,0,R_3CZZ2kfZiHqB8kL
183,644.0,https://cdn.jsdelivr.net/gh/dvitaa/jsPsych-in-Qualtrics65/countingstroop/img/2con.png,50.0,congruent,2,image-keyboard-response,86,200780,0.0-4.0-0.75,True,0,R_3CZZ2kfZiHqB8kL
184,587.0,https://cdn.jsdelivr.net/gh/dvitaa/jsPsych-in-Qualtrics65/countingstroop/img/2incon3.png,51.0,incongruent,3,image-keyboard-response,85,198504,0.0-4.0-0.74,True,0,R_3CZZ2kfZiHqB8kL
185,663.0,https://cdn.jsdelivr.net/gh/dvitaa/jsPsych-in-Qualtrics65/countingstroop/img/2incon4.png,52.0,incongruent,4,image-keyboard-response,84,196848,0.0-4.0-0.73,True,0,R_3CZZ2kfZiHqB8kL
186,659.0,https://cdn.jsdelivr.net/gh/dvitaa/jsPsych-in-Qualtrics65/countingstroop/img/1incon4.png,52.0,incongruent,4,image-keyboard-response,83,194809,0.0-4.0-0.72,True,0,R_3CZZ2kfZiHqB8kL
187,613.0,https://cdn.jsdelivr.net/gh/dvitaa/jsPsych-in-Qualtrics65/countingstroop/img/3incon1.png,49.0,incongruent,1,image-keyboard-response,82,192693,0.0-4.0-0.71,True,0,R_3CZZ2kfZiHqB8kL
188,569.0000000002328,https://cdn.jsdelivr.net/gh/dvitaa/jsPsych-in-Qualtrics65/countingstroop/img/2incon1.png,49.0,incongruent,1,image-keyboard-response,71,172161,0.0-4.0-0.60,True,0,R_3CZZ2kfZiHqB8kL
189,820.0,https://cdn.jsdelivr.net/gh/dvitaa/jsPsych-in-Qualtrics65/countingstroop/img/3incon4.png,52.0,incongruent,4,image-keyboard-response,81,190319,0.0-4.0-0.70,True,0,R_3CZZ2kfZiHqB8kL
190,536.0,https://cdn.jsdelivr.net/gh/dvitaa/jsPsych-in-Qualtrics65/countingstroop/img/1con.png,49.0,congruent,1,image-keyboard-response,79,185949,0.0-4.0-0.68,True,0,R_3CZZ2kfZiHqB8kL
191,706.0,https://cdn.jsdelivr.net/gh/dvitaa/jsPsych-in-Qualtrics65/countingstroop/img/1incon4.png,52.0,incongruent,4,image-keyboard-response,78,183415,0.0-4.0-0.67,True,0,R_3CZZ2kfZiHqB8kL
192,776.0,https://cdn.jsdelivr.net/gh/dvitaa/jsPsych-in-Qualtrics65/countingstroop/img/1incon4.png,52.0,incongruent,4,image-keyboard-response,77,182027,0.0-4.0-0.66,True,0,R_3CZZ2kfZiHqB8kL
193,604.0,https://cdn.jsdelivr.net/gh/dvitaa/jsPsych-in-Qualtrics65/countingstroop/img/1con.png,49.0,congruent,1,image-keyboard-response,76,180338,0.0-4.0-0.65,True,0,R_3CZZ2kfZiHqB8kL
194,1012.0,https://cdn.jsdelivr.net/gh/dvitaa/jsPsych-in-Qualtrics65/countingstroop/img/2incon1.png,49.0,incongruent,1,image-keyboard-response,75,178487,0.0-4.0-0.64,True,0,R_3CZZ2kfZiHqB8kL
195,566.0,https://cdn.jsdelivr.net/gh/dvitaa/jsPsych-in-Qualtrics65/countingstroop/img/3incon2.png,50.0,incongruent,2,image-keyboard-response,74,176937,0.0-4.0-0.63,True,0,R_3CZZ2kfZiHqB8kL
196,538.0,https://cdn.jsdelivr.net/gh/dvitaa/jsPsych-in-Qualtrics65/countingstroop/img/3con.png,51.0,congruent,3,image-keyboard-response,73,175702,0.0-4.0-0.62,True,0,R_3CZZ2kfZiHqB8kL
197,530.0,https://cdn.jsdelivr.net/gh/dvitaa/jsPsych-in-Qualtrics65/countingstroop/img/4incon3.png,51.0,incongruent,3,image-keyboard-response,80,187751,0.0-4.0-0.69,True,0,R_3CZZ2kfZiHqB8kL
198,907.0,https://cdn.jsdelivr.net/gh/dvitaa/jsPsych-in-Qualtrics65/countingstroop/img/3incon4.png,52.0,incongruent,4,image-keyboard-response,51,135324,0.0-4.0-0.40,True,0,R_3CZZ2kfZiHqB8kL
199,731.0,https://cdn.jsdelivr.net/gh/dvitaa/jsPsych-in-Qualtrics65/countingstroop/img/4incon1.png,49.0,incongruent,1,image-keyboard-response,50,133563,0.0-4.0-0.39,True,0,R_3CZZ2kfZiHqB8kL
200,758.0,https://cdn.jsdelivr.net/gh/dvitaa/jsPsych-in-Qualtrics65/countingstroop/img/2incon3.png,51.0,incongruent,3,image-keyboard-response,49,131857,0.0-4.0-0.38,True,0,R_3CZZ2kfZiHqB8kL
201,693.0,https://cdn.jsdelivr.net/gh/dvitaa/jsPsych-in-Qualtrics65/countingstroop/img/2incon3.png,51.0,incongruent,3,image-keyboard-response,27,87586,0.0-4.0-0.16,True,0,R_3CZZ2kfZiHqB8kL
202,767.0,https://cdn.jsdelivr.net/gh/dvitaa/jsPsych-in-Qualtrics65/countingstroop/img/1incon4.png,52.0,incongruent,4,image-keyboard-response,26,85776,0.0-4.0-0.15,True,0,R_3CZZ2kfZiHqB8kL
203,733.0000000002328,https://cdn.jsdelivr.net/gh/dvitaa/jsPsych-in-Qualtrics65/countingstroop/img/4incon1.png,49.0,incongruent,1,image-keyboard-response,25,84090,0.0-4.0-0.14,True,0,R_3CZZ2kfZiHqB8kL
204,719.0,https://cdn.jsdelivr.net/gh/dvitaa/jsPsych-in-Qualtrics65/countingstroop/img/2incon3.png,51.0,incongruent,3,image-keyboard-response,24,82566,0.0-4.0-0.13,True,0,R_3CZZ2kfZiHqB8kL
205,1063.0,https://cdn.jsdelivr.net/gh/dvitaa/jsPsych-in-Qualtrics65/countingstroop/img/4incon2.png,50.0,incongruent,2,image-keyboard-response,23,80722,0.0-4.0-0.12,True,0,R_3CZZ2kfZiHqB8kL
206,893.0,https://cdn.jsdelivr.net/gh/dvitaa/jsPsych-in-Qualtrics65/countingstroop/img/4incon1.png,49.0,incongruent,1,image-keyboard-response,22,78399,0.0-4.0-0.11,True,0,R_3CZZ2kfZiHqB8kL
207,1487.0000000002328,https://cdn.jsdelivr.net/gh/dvitaa/jsPsych-in-Qualtrics65/countingstroop/img/3incon4.png,52.0,incongruent,4,image-keyboard-response,21,75744,0.0-4.0-0.10,True,0,R_3CZZ2kfZiHqB8kL
208,700.0,https://cdn.jsdelivr.net/gh/dvitaa/jsPsych-in-Qualtrics65/countingstroop/img/4incon1.png,49.0,incongruent,1,image-keyboard-response,28,90226,0.0-4.0-0.17,True,0,R_3CZZ2kfZiHqB8kL
209,946.0,https://cdn.jsdelivr.net/gh/dvitaa/jsPsych-in-Qualtrics65/countingstroop/img/2incon1.png,49.0,incongruent,1,image-keyboard-response,20,72396,0.0-4.0-0.9,True,0,R_3CZZ2kfZiHqB8kL
210,1127.9999999997672,https://cdn.jsdelivr.net/gh/dvitaa/jsPsych-in-Qualtrics65/countingstroop/img/4incon3.png,51.0,incongruent,3,image-keyboard-response,18,68727,0.0-4.0-0.7,True,0,R_3CZZ2kfZiHqB8kL
211,679.0,https://cdn.jsdelivr.net/gh/dvitaa/jsPsych-in-Qualtrics65/countingstroop/img/2con.png,50.0,congruent,2,image-keyboard-response,17,65603,0.0-4.0-0.6,True,0,R_3CZZ2kfZiHqB8kL
212,578.0000000002328,https://cdn.jsdelivr.net/gh/dvitaa/jsPsych-in-Qualtrics65/countingstroop/img/2incon3.png,51.0,incongruent,3,image-keyboard-response,16,63445,0.0-4.0-0.5,True,0,R_3CZZ2kfZiHqB8kL
213,932.0,https://cdn.jsdelivr.net/gh/dvitaa/jsPsych-in-Qualtrics65/countingstroop/img/1con.png,49.0,congruent,1,image-keyboard-response,15,61471,0.0-4.0-0.4,True,0,R_3CZZ2kfZiHqB8kL
214,837.0,https://cdn.jsdelivr.net/gh/dvitaa/jsPsych-in-Qualtrics65/countingstroop/img/2con.png,50.0,congruent,2,image-keyboard-response,14,58737,0.0-4.0-0.3,True,0,R_3CZZ2kfZiHqB8kL
215,676.0,https://cdn.jsdelivr.net/gh/dvitaa/jsPsych-in-Qualtrics65/countingstroop/img/3incon2.png,50.0,incongruent,2,image-keyboard-response,170,368208,0.0-4.0-0.159,True,0,R_3CZZ2kfZiHqB8kL
216,953.9999999997672,https://cdn.jsdelivr.net/gh/dvitaa/jsPsych-in-Qualtrics65/countingstroop/img/3incon1.png,51.0,incongruent,1,image-keyboard-response,12,55062,0.0-4.0-0.1,False,0,R_3CZZ2kfZiHqB8kL
217,602.0,https://cdn.jsdelivr.net/gh/dvitaa/jsPsych-in-Qualtrics65/countingstroop/img/1con.png,49.0,congruent,1,image-keyboard-response,19,70218,0.0-4.0-0.8,True,0,R_3CZZ2kfZiHqB8kL
218,604.9999999997672,https://cdn.jsdelivr.net/gh/dvitaa/jsPsych-in-Qualtrics65/countingstroop/img/4incon2.png,50.0,incongruent,2,image-keyboard-response,29,92445,0.0-4.0-0.18,True,0,R_3CZZ2kfZiHqB8kL
219,726.9999999997672,https://cdn.jsdelivr.net/gh/dvitaa/jsPsych-in-Qualtrics65/countingstroop/img/2incon1.png,49.0,incongruent,1,image-keyboard-response,30,94606,0.0-4.0-0.19,True,0,R_3CZZ2kfZiHqB8kL
220,671.9999999997672,https://cdn.jsdelivr.net/gh/dvitaa/jsPsych-in-Qualtrics65/countingstroop/img/2incon3.png,51.0,incongruent,3,image-keyboard-response,31,96089,0.0-4.0-0.20,True,0,R_3CZZ2kfZiHqB8kL
221,1227.0,https://cdn.jsdelivr.net/gh/dvitaa/jsPsych-in-Qualtrics65/countingstroop/img/2incon4.png,52.0,incongruent,4,image-keyboard-response,48,130233,0.0-4.0-0.37,True,0,R_3CZZ2kfZiHqB8kL
222,893.0,https://cdn.jsdelivr.net/gh/dvitaa/jsPsych-in-Qualtrics65/countingstroop/img/3con.png,51.0,congruent,3,image-keyboard-response,47,128049,0.0-4.0-0.36,True,0,R_3CZZ2kfZiHqB8kL
223,852.0,https://cdn.jsdelivr.net/gh/dvitaa/jsPsych-in-Qualtrics65/countingstroop/img/2incon4.png,52.0,incongruent,4,image-keyboard-response,46,125294,0.0-4.0-0.35,True,0,R_3CZZ2kfZiHqB8kL
224,721.0,https://cdn.jsdelivr.net/gh/dvitaa/jsPsych-in-Qualtrics65/countingstroop/img/4incon2.png,50.0,incongruent,2,image-keyboard-response,45,122817,0.0-4.0-0.34,True,0,R_3CZZ2kfZiHqB8kL
225,943.0,https://cdn.jsdelivr.net/gh/dvitaa/jsPsych-in-Qualtrics65/countingstroop/img/3incon1.png,49.0,incongruent,1,image-keyboard-response,44,120951,0.0-4.0-0.33,True,0,R_3CZZ2kfZiHqB8kL
226,572.0,https://cdn.jsdelivr.net/gh/dvitaa/jsPsych-in-Qualtrics65/countingstroop/img/4incon2.png,50.0,incongruent,2,image-keyboard-response,43,118614,0.0-4.0-0.32,True,0,R_3CZZ2kfZiHqB8kL
227,841.0,https://cdn.jsdelivr.net/gh/dvitaa/jsPsych-in-Qualtrics65/countingstroop/img/4incon2.png,50.0,incongruent,2,image-keyboard-response,42,117210,0.0-4.0-0.31,True,0,R_3CZZ2kfZiHqB8kL
228,652.0,https://cdn.jsdelivr.net/gh/dvitaa/jsPsych-in-Qualtrics65/countingstroop/img/2con.png,50.0,congruent,2,image-keyboard-response,41,114911,0.0-4.0-0.30,True,0,R_3CZZ2kfZiHqB8kL
229,724.0,https://cdn.jsdelivr.net/gh/dvitaa/jsPsych-in-Qualtrics65/countingstroop/img/2incon1.png,49.0,incongruent,1,image-keyboard-response,40,112368,0.0-4.0-0.29,True,0,R_3CZZ2kfZiHqB8kL
230,649.0000000002328,https://cdn.jsdelivr.net/gh/dvitaa/jsPsych-in-Qualtrics65/countingstroop/img/1incon2.png,50.0,incongruent,2,image-keyboard-response,39,110841,0.0-4.0-0.28,True,0,R_3CZZ2kfZiHqB8kL
231,567.9999999997672,https://cdn.jsdelivr.net/gh/dvitaa/jsPsych-in-Qualtrics65/countingstroop/img/4incon3.png,51.0,incongruent,3,image-keyboard-response,38,108957,0.0-4.0-0.27,True,0,R_3CZZ2kfZiHqB8kL
232,712.9999999997672,https://cdn.jsdelivr.net/gh/dvitaa/jsPsych-in-Qualtrics65/countingstroop/img/3incon1.png,49.0,incongruent,1,image-keyboard-response,37,107043,0.0-4.0-0.26,True,0,R_3CZZ2kfZiHqB8kL
233,586.0,https://cdn.jsdelivr.net/gh/dvitaa/jsPsych-in-Qualtrics65/countingstroop/img/4incon3.png,51.0,incongruent,3,image-keyboard-response,36,104777,0.0-4.0-0.25,True,0,R_3CZZ2kfZiHqB8kL
234,1015.0000000002328,https://cdn.jsdelivr.net/gh/dvitaa/jsPsych-in-Qualtrics65/countingstroop/img/2incon4.png,52.0,incongruent,4,image-keyboard-response,35,102234,0.0-4.0-0.24,True,0,R_3CZZ2kfZiHqB8kL
235,653.0,https://cdn.jsdelivr.net/gh/dvitaa/jsPsych-in-Qualtrics65/countingstroop/img/2incon1.png,49.0,incongruent,1,image-keyboard-response,34,100716,0.0-4.0-0.23,True,0,R_3CZZ2kfZiHqB8kL
236,661.0000000002328,https://cdn.jsdelivr.net/gh/dvitaa/jsPsych-in-Qualtrics65/countingstroop/img/1incon2.png,50.0,incongruent,2,image-keyboard-response,33,99042,0.0-4.0-0.22,True,0,R_3CZZ2kfZiHqB8kL
237,768.0,https://cdn.jsdelivr.net/gh/dvitaa/jsPsych-in-Qualtrics65/countingstroop/img/4incon3.png,51.0,incongruent,3,image-keyboard-response,32,97515,0.0-4.0-0.21,True,0,R_3CZZ2kfZiHqB8kL
238,546.0,https://cdn.jsdelivr.net/gh/dvitaa/jsPsych-in-Qualtrics65/countingstroop/img/1incon2.png,50.0,incongruent,2,image-keyboard-response,89,207374,0.0-4.0-0.78,True,0,R_3CZZ2kfZiHqB8kL
239,590.0,https://cdn.jsdelivr.net/gh/dvitaa/jsPsych-in-Qualtrics65/countingstroop/img/3incon2.png,50.0,incongruent,2,image-keyboard-response,90,209892,0.0-4.0-0.79,True,0,R_3CZZ2kfZiHqB8kL
240,1019.0,https://cdn.jsdelivr.net/gh/dvitaa/jsPsych-in-Qualtrics65/countingstroop/img/4incon1.png,52.0,incongruent,1,image-keyboard-response,13,57231,0.0-4.0-0.2,False,0,R_3CZZ2kfZiHqB8kL
241,616.0,https://cdn.jsdelivr.net/gh/dvitaa/jsPsych-in-Qualtrics65/countingstroop/img/4incon2.png,50.0,incongruent,2,image-keyboard-response,92,212938,0.0-4.0-0.81,True,0,R_3CZZ2kfZiHqB8kL
242,882.0,https://cdn.jsdelivr.net/gh/dvitaa/jsPsych-in-Qualtrics65/countingstroop/img/1incon4.png,52.0,incongruent,4,image-keyboard-response,148,321958,0.0-4.0-0.137,True,0,R_3CZZ2kfZiHqB8kL
243,801.0,https://cdn.jsdelivr.net/gh/dvitaa/jsPsych-in-Qualtrics65/countingstroop/img/3incon1.png,49.0,incongruent,1,image-keyboard-response,147,320148,0.0-4.0-0.136,True,0,R_3CZZ2kfZiHqB8kL
244,709.0,https://cdn.jsdelivr.net/gh/dvitaa/jsPsych-in-Qualtrics65/countingstroop/img/2incon4.png,52.0,incongruent,4,image-keyboard-response,146,318109,0.0-4.0-0.135,True,0,R_3CZZ2kfZiHqB8kL
245,561.0,https://cdn.jsdelivr.net/gh/dvitaa/jsPsych-in-Qualtrics65/countingstroop/img/2con.png,50.0,congruent,2,image-keyboard-response,145,315530,0.0-4.0-0.134,True,0,R_3CZZ2kfZiHqB8kL
246,782.0,https://cdn.jsdelivr.net/gh/dvitaa/jsPsych-in-Qualtrics65/countingstroop/img/3incon4.png,52.0,incongruent,4,image-keyboard-response,144,313248,0.0-4.0-0.133,True,0,R_3CZZ2kfZiHqB8kL
247,721.0,https://cdn.jsdelivr.net/gh/dvitaa/jsPsych-in-Qualtrics65/countingstroop/img/1incon4.png,52.0,incongruent,4,image-keyboard-response,143,310916,0.0-4.0-0.132,True,0,R_3CZZ2kfZiHqB8kL
248,625.0,https://cdn.jsdelivr.net/gh/dvitaa/jsPsych-in-Qualtrics65/countingstroop/img/1incon4.png,52.0,incongruent,4,image-keyboard-response,142,308556,0.0-4.0-0.131,True,0,R_3CZZ2kfZiHqB8kL
249,977.0,https://cdn.jsdelivr.net/gh/dvitaa/jsPsych-in-Qualtrics65/countingstroop/img/2incon3.png,51.0,incongruent,3,image-keyboard-response,149,323965,0.0-4.0-0.138,True,0,R_3CZZ2kfZiHqB8kL
250,655.0,https://cdn.jsdelivr.net/gh/dvitaa/jsPsych-in-Qualtrics65/countingstroop/img/2incon4.png,52.0,incongruent,4,image-keyboard-response,141,306053,0.0-4.0-0.130,True,0,R_3CZZ2kfZiHqB8kL
251,769.0,https://cdn.jsdelivr.net/gh/dvitaa/jsPsych-in-Qualtrics65/countingstroop/img/4incon2.png,50.0,incongruent,2,image-keyboard-response,139,301682,0.0-4.0-0.128,True,0,R_3CZZ2kfZiHqB8kL
252,629.0000000002328,https://cdn.jsdelivr.net/gh/dvitaa/jsPsych-in-Qualtrics65/countingstroop/img/4incon3.png,51.0,incongruent,3,image-keyboard-response,138,300037,0.0-4.0-0.127,True,0,R_3CZZ2kfZiHqB8kL
253,533.0,https://cdn.jsdelivr.net/gh/dvitaa/jsPsych-in-Qualtrics65/countingstroop/img/4incon1.png,49.0,incongruent,1,image-keyboard-response,137,297573,0.0-4.0-0.126,True,0,R_3CZZ2kfZiHqB8kL
254,995.0,https://cdn.jsdelivr.net/gh/dvitaa/jsPsych-in-Qualtrics65/countingstroop/img/3incon4.png,52.0,incongruent,4,image-keyboard-response,136,296241,0.0-4.0-0.125,True,0,R_3CZZ2kfZiHqB8kL
255,850.0,https://cdn.jsdelivr.net/gh/dvitaa/jsPsych-in-Qualtrics65/countingstroop/img/4incon3.png,51.0,incongruent,3,image-keyboard-response,135,294213,0.0-4.0-0.124,True,0,R_3CZZ2kfZiHqB8kL
256,753.0,https://cdn.jsdelivr.net/gh/dvitaa/jsPsych-in-Qualtrics65/countingstroop/img/1incon4.png,52.0,incongruent,4,image-keyboard-response,134,292755,0.0-4.0-0.123,True,0,R_3CZZ2kfZiHqB8kL
257,1247.9999999997672,https://cdn.jsdelivr.net/gh/dvitaa/jsPsych-in-Qualtrics65/countingstroop/img/1incon2.png,50.0,incongruent,2,image-keyboard-response,133,290209,0.0-4.0-0.122,True,0,R_3CZZ2kfZiHqB8kL
258,672.0,https://cdn.jsdelivr.net/gh/dvitaa/jsPsych-in-Qualtrics65/countingstroop/img/2con.png,50.0,congruent,2,image-keyboard-response,140,303744,0.0-4.0-0.129,True,0,R_3CZZ2kfZiHqB8kL
259,,https://cdn.jsdelivr.net/gh/dvitaa/jsPsych-in-Qualtrics65/countingstroop/img/3con.png,,congruent,3,image-keyboard-response,132,287323,0.0-4.0-0.121,False,0,R_3CZZ2kfZiHqB8kL
260,762.0,https://cdn.jsdelivr.net/gh/dvitaa/jsPsych-in-Qualtrics65/countingstroop/img/3incon1.png,49.0,incongruent,1,image-keyboard-response,150,325900,0.0-4.0-0.139,True,0,R_3CZZ2kfZiHqB8kL
261,587.0,https://cdn.jsdelivr.net/gh/dvitaa/jsPsych-in-Qualtrics65/countingstroop/img/2incon1.png,49.0,incongruent,1,image-keyboard-response,152,330100,0.0-4.0-0.141,True,0,R_3CZZ2kfZiHqB8kL
262,624.0,https://cdn.jsdelivr.net/gh/dvitaa/jsPsych-in-Qualtrics65/countingstroop/img/3con.png,51.0,congruent,3,image-keyboard-response,91,211587,0.0-4.0-0.80,True,0,R_3CZZ2kfZiHqB8kL
263,700.0000000002328,https://cdn.jsdelivr.net/gh/dvitaa/jsPsych-in-Qualtrics65/countingstroop/img/1incon3.png,51.0,incongruent,3,image-keyboard-response,167,363395,0.0-4.0-0.156,True,0,R_3CZZ2kfZiHqB8kL
264,866.0,https://cdn.jsdelivr.net/gh/dvitaa/jsPsych-in-Qualtrics65/countingstroop/img/3incon1.png,49.0,incongruent,1,image-keyboard-response,166,361913,0.0-4.0-0.155,True,0,R_3CZZ2kfZiHqB8kL
265,867.0,https://cdn.jsdelivr.net/gh/dvitaa/jsPsych-in-Qualtrics65/countingstroop/img/3incon4.png,52.0,incongruent,4,image-keyboard-response,165,359167,0.0-4.0-0.154,True,0,R_3CZZ2kfZiHqB8kL
266,742.9999999997672,https://cdn.jsdelivr.net/gh/dvitaa/jsPsych-in-Qualtrics65/countingstroop/img/3incon1.png,51.0,incongruent,1,image-keyboard-response,164,357080,0.0-4.0-0.153,False,0,R_3CZZ2kfZiHqB8kL
267,694.0,https://cdn.jsdelivr.net/gh/dvitaa/jsPsych-in-Qualtrics65/countingstroop/img/4con.png,52.0,congruent,4,image-keyboard-response,163,355084,0.0-4.0-0.152,True,0,R_3CZZ2kfZiHqB8kL
268,818.0,https://cdn.jsdelivr.net/gh/dvitaa/jsPsych-in-Qualtrics65/countingstroop/img/4incon3.png,51.0,incongruent,3,image-keyboard-response,162,352751,0.0-4.0-0.151,True,0,R_3CZZ2kfZiHqB8kL
269,728.0,https://cdn.jsdelivr.net/gh/dvitaa/jsPsych-in-Qualtrics65/countingstroop/img/1incon3.png,51.0,incongruent,3,image-keyboard-response,151,328627,0.0-4.0-0.140,True,0,R_3CZZ2kfZiHqB8kL
270,705.0,https://cdn.jsdelivr.net/gh/dvitaa/jsPsych-in-Qualtrics65/countingstroop/img/3con.png,51.0,congruent,3,image-keyboard-response,161,350730,0.0-4.0-0.150,True,0,R_3CZZ2kfZiHqB8kL
271,808.0,https://cdn.jsdelivr.net/gh/dvitaa/jsPsych-in-Qualtrics65/countingstroop/img/2incon1.png,50.0,incongruent,1,image-keyboard-response,159,346541,0.0-4.0-0.148,False,0,R_3CZZ2kfZiHqB8kL
272,905.0,https://cdn.jsdelivr.net/gh/dvitaa/jsPsych-in-Qualtrics65/countingstroop/img/4incon1.png,49.0,incongruent,1,image-keyboard-response,158,343997,0.0-4.0-0.147,True,0,R_3CZZ2kfZiHqB8kL
273,842.0000000002328,https://cdn.jsdelivr.net/gh/dvitaa/jsPsych-in-Qualtrics65/countingstroop/img/4con.png,52.0,congruent,4,image-keyboard-response,157,341606,0.0-4.0-0.146,True,0,R_3CZZ2kfZiHqB8kL
274,522.0,https://cdn.jsdelivr.net/gh/dvitaa/jsPsych-in-Qualtrics65/countingstroop/img/1con.png,49.0,congruent,1,image-keyboard-response,156,339317,0.0-4.0-0.145,True,0,R_3CZZ2kfZiHqB8kL
275,729.0,https://cdn.jsdelivr.net/gh/dvitaa/jsPsych-in-Qualtrics65/countingstroop/img/4incon3.png,51.0,incongruent,3,image-keyboard-response,155,337202,0.0-4.0-0.144,True,0,R_3CZZ2kfZiHqB8kL
276,683.0,https://cdn.jsdelivr.net/gh/dvitaa/jsPsych-in-Qualtrics65/countingstroop/img/2con.png,50.0,congruent,2,image-keyboard-response,154,334701,0.0-4.0-0.143,True,0,R_3CZZ2kfZiHqB8kL
277,703.0,https://cdn.jsdelivr.net/gh/dvitaa/jsPsych-in-Qualtrics65/countingstroop/img/4incon3.png,51.0,incongruent,3,image-keyboard-response,153,332592,0.0-4.0-0.142,True,0,R_3CZZ2kfZiHqB8kL
278,573.0,https://cdn.jsdelivr.net/gh/dvitaa/jsPsych-in-Qualtrics65/countingstroop/img/1con.png,49.0,congruent,1,image-keyboard-response,160,348060,0.0-4.0-0.149,True,0,R_3CZZ2kfZiHqB8kL
279,811.0,https://cdn.jsdelivr.net/gh/dvitaa/jsPsych-in-Qualtrics65/countingstroop/img/3con.png,51.0,congruent,3,image-keyboard-response,131,285255,0.0-4.0-0.120,True,0,R_3CZZ2kfZiHqB8kL
280,753.0,https://cdn.jsdelivr.net/gh/dvitaa/jsPsych-in-Qualtrics65/countingstroop/img/3con.png,51.0,congruent,3,image-keyboard-response,168,364799,0.0-4.0-0.157,True,0,R_3CZZ2kfZiHqB8kL
281,799.0,https://cdn.jsdelivr.net/gh/dvitaa/jsPsych-in-Qualtrics65/countingstroop/img/2incon4.png,52.0,incongruent,4,image-keyboard-response,129,282121,0.0-4.0-0.118,True,0,R_3CZZ2kfZiHqB8kL
282,554.0,https://cdn.jsdelivr.net/gh/dvitaa/jsPsych-in-Qualtrics65/countingstroop/img/3incon2.png,50.0,incongruent,2,image-keyboard-response,108,240480,0.0-4.0-0.97,True,0,R_3CZZ2kfZiHqB8kL
283,561.0,https://cdn.jsdelivr.net/gh/dvitaa/jsPsych-in-Qualtrics65/countingstroop/img/1incon2.png,50.0,incongruent,2,image-keyboard-response,107,238351,0.0-4.0-0.96,True,0,R_3CZZ2kfZiHqB8kL
284,581.0,https://cdn.jsdelivr.net/gh/dvitaa/jsPsych-in-Qualtrics65/countingstroop/img/3incon2.png,50.0,incongruent,2,image-keyboard-response,106,236128,0.0-4.0-0.95,True,0,R_3CZZ2kfZiHqB8kL
285,821.0,https://cdn.jsdelivr.net/gh/dvitaa/jsPsych-in-Qualtrics65/countingstroop/img/3incon1.png,49.0,incongruent,1,image-keyboard-response,105,234687,0.0-4.0-0.94,True,0,R_3CZZ2kfZiHqB8kL
286,505.0,https://cdn.jsdelivr.net/gh/dvitaa/jsPsych-in-Qualtrics65/countingstroop/img/4incon2.png,50.0,incongruent,2,image-keyboard-response,104,232369,0.0-4.0-0.93,True,0,R_3CZZ2kfZiHqB8kL
287,537.0,https://cdn.jsdelivr.net/gh/dvitaa/jsPsych-in-Qualtrics65/countingstroop/img/3con.png,51.0,congruent,3,image-keyboard-response,103,231240,0.0-4.0-0.92,True,0,R_3CZZ2kfZiHqB8kL
288,582.0,https://cdn.jsdelivr.net/gh/dvitaa/jsPsych-in-Qualtrics65/countingstroop/img/4incon2.png,50.0,incongruent,2,image-keyboard-response,101,228697,0.0-4.0-0.90,True,0,R_3CZZ2kfZiHqB8kL
289,584.0,https://cdn.jsdelivr.net/gh/dvitaa/jsPsych-in-Qualtrics65/countingstroop/img/1incon2.png,50.0,incongruent,2,image-keyboard-response,109,242948,0.0-4.0-0.98,True,0,R_3CZZ2kfZiHqB8kL
290,677.0,https://cdn.jsdelivr.net/gh/dvitaa/jsPsych-in-Qualtrics65/countingstroop/img/2incon4.png,52.0,incongruent,4,image-keyboard-response,100,226537,0.0-4.0-0.89,True,0,R_3CZZ2kfZiHqB8kL
291,658.9999999997672,https://cdn.jsdelivr.net/gh/dvitaa/jsPsych-in-Qualtrics65/countingstroop/img/3incon4.png,52.0,incongruent,4,image-keyboard-response,98,222589,0.0-4.0-0.87,True,0,R_3CZZ2kfZiHqB8kL
292,543.0,https://cdn.jsdelivr.net/gh/dvitaa/jsPsych-in-Qualtrics65/countingstroop/img/1incon2.png,50.0,incongruent,2,image-keyboard-response,97,220114,0.0-4.0-0.86,True,0,R_3CZZ2kfZiHqB8kL
293,729.0,https://cdn.jsdelivr.net/gh/dvitaa/jsPsych-in-Qualtrics65/countingstroop/img/3incon4.png,52.0,incongruent,4,image-keyboard-response,96,218867,0.0-4.0-0.85,True,0,R_3CZZ2kfZiHqB8kL
294,546.0,https://cdn.jsdelivr.net/gh/dvitaa/jsPsych-in-Qualtrics65/countingstroop/img/1con.png,49.0,congruent,1,image-keyboard-response,95,217439,0.0-4.0-0.84,True,0,R_3CZZ2kfZiHqB8kL
295,651.0,https://cdn.jsdelivr.net/gh/dvitaa/jsPsych-in-Qualtrics65/countingstroop/img/4con.png,52.0,congruent,4,image-keyboard-response,94,216031,0.0-4.0-0.83,True,0,R_3CZZ2kfZiHqB8kL
296,645.0,https://cdn.jsdelivr.net/gh/dvitaa/jsPsych-in-Qualtrics65/countingstroop/img/2incon3.png,51.0,incongruent,3,image-keyboard-response,93,214282,0.0-4.0-0.82,True,0,R_3CZZ2kfZiHqB8kL
297,783.0,https://cdn.jsdelivr.net/gh/dvitaa/jsPsych-in-Qualtrics65/countingstroop/img/3con.png,51.0,congruent,3,image-keyboard-response,130,283712,0.0-4.0-0.119,True,0,R_3CZZ2kfZiHqB8kL
298,675.0000000002328,https://cdn.jsdelivr.net/gh/dvitaa/jsPsych-in-Qualtrics65/countingstroop/img/1incon4.png,52.0,incongruent,4,image-keyboard-response,99,224603,0.0-4.0-0.88,True,0,R_3CZZ2kfZiHqB8kL
299,569.0,https://cdn.jsdelivr.net/gh/dvitaa/jsPsych-in-Qualtrics65/countingstroop/img/2con.png,50.0,congruent,2,image-keyboard-response,110,244165,0.0-4.0-0.99,True,0,R_3CZZ2kfZiHqB8kL
300,545.0,https://cdn.jsdelivr.net/gh/dvitaa/jsPsych-in-Qualtrics65/countingstroop/img/2con.png,50.0,congruent,2,image-keyboard-response,102,229932,0.0-4.0-0.91,True,0,R_3CZZ2kfZiHqB8kL
301,578.0,https://cdn.jsdelivr.net/gh/dvitaa/jsPsych-in-Qualtrics65/countingstroop/img/1con.png,49.0,congruent,1,image-keyboard-response,112,248464,0.0-4.0-0.101,True,0,R_3CZZ2kfZiHqB8kL
302,770.0,https://cdn.jsdelivr.net/gh/dvitaa/jsPsych-in-Qualtrics65/countingstroop/img/3incon1.png,51.0,incongruent,1,image-keyboard-response,111,246067,0.0-4.0-0.100,False,0,R_3CZZ2kfZiHqB8kL
303,945.0,https://cdn.jsdelivr.net/gh/dvitaa/jsPsych-in-Qualtrics65/countingstroop/img/4con.png,52.0,congruent,4,image-keyboard-response,127,278375,0.0-4.0-0.116,True,0,R_3CZZ2kfZiHqB8kL
304,751.0000000002328,https://cdn.jsdelivr.net/gh/dvitaa/jsPsych-in-Qualtrics65/countingstroop/img/1incon3.png,51.0,incongruent,3,image-keyboard-response,126,276220,0.0-4.0-0.115,True,0,R_3CZZ2kfZiHqB8kL
305,596.9999999997672,https://cdn.jsdelivr.net/gh/dvitaa/jsPsych-in-Qualtrics65/countingstroop/img/2con.png,50.0,congruent,2,image-keyboard-response,125,274654,0.0-4.0-0.114,True,0,R_3CZZ2kfZiHqB8kL
306,1036.0000000002328,https://cdn.jsdelivr.net/gh/dvitaa/jsPsych-in-Qualtrics65/countingstroop/img/3incon4.png,52.0,incongruent,4,image-keyboard-response,124,272470,0.0-4.0-0.113,True,0,R_3CZZ2kfZiHqB8kL
307,570.0,https://cdn.jsdelivr.net/gh/dvitaa/jsPsych-in-Qualtrics65/countingstroop/img/3incon2.png,50.0,incongruent,2,image-keyboard-response,122,268305,0.0-4.0-0.111,True,0,R_3CZZ2kfZiHqB8kL
308,582.0,https://cdn.jsdelivr.net/gh/dvitaa/jsPsych-in-Qualtrics65/countingstroop/img/3incon2.png,50.0,incongruent,2,image-keyboard-response,121,266178,0.0-4.0-0.110,True,0,R_3CZZ2kfZiHqB8kL
309,682.0,https://cdn.jsdelivr.net/gh/dvitaa/jsPsych-in-Qualtrics65/countingstroop/img/1incon3.png,51.0,incongruent,3,image-keyboard-response,120,264452,0.0-4.0-0.109,True,0,R_3CZZ2kfZiHqB8kL
310,797.0,https://cdn.jsdelivr.net/gh/dvitaa/jsPsych-in-Qualtrics65/countingstroop/img/3incon1.png,49.0,incongruent,1,image-keyboard-response,123,270285,0.0-4.0-0.112,True,0,R_3CZZ2kfZiHqB8kL
311,694.0,https://cdn.jsdelivr.net/gh/dvitaa/jsPsych-in-Qualtrics65/countingstroop/img/4incon1.png,49.0,incongruent,1,image-keyboard-response,128,280748,0.0-4.0-0.117,True,0,R_3CZZ2kfZiHqB8kL
312,1070.9999999997672,https://cdn.jsdelivr.net/gh/dvitaa/jsPsych-in-Qualtrics65/countingstroop/img/4incon2.png,50.0,incongruent,2,image-keyboard-response,118,260012,0.0-4.0-0.107,True,0,R_3CZZ2kfZiHqB8kL
313,485.0,https://cdn.jsdelivr.net/gh/dvitaa/jsPsych-in-Qualtrics65/countingstroop/img/4incon1.png,49.0,incongruent,1,image-keyboard-response,117,257773,0.0-4.0-0.106,True,0,R_3CZZ2kfZiHqB8kL
314,740.0,https://cdn.jsdelivr.net/gh/dvitaa/jsPsych-in-Qualtrics65/countingstroop/img/3con.png,51.0,congruent,3,image-keyboard-response,116,255423,0.0-4.0-0.105,True,0,R_3CZZ2kfZiHqB8kL
315,643.0,https://cdn.jsdelivr.net/gh/dvitaa/jsPsych-in-Qualtrics65/countingstroop/img/4con.png,52.0,congruent,4,image-keyboard-response,115,254143,0.0-4.0-0.104,True,0,R_3CZZ2kfZiHqB8kL
316,541.0,https://cdn.jsdelivr.net/gh/dvitaa/jsPsych-in-Qualtrics65/countingstroop/img/4incon1.png,49.0,incongruent,1,image-keyboard-response,114,251792,0.0-4.0-0.103,True,0,R_3CZZ2kfZiHqB8kL
317,820.0,https://cdn.jsdelivr.net/gh/dvitaa/jsPsych-in-Qualtrics65/countingstroop/img/1incon4.png,52.0,incongruent,4,image-keyboard-response,113,249968,0.0-4.0-0.102,True,0,R_3CZZ2kfZiHqB8kL
318,761.0,https://cdn.jsdelivr.net/gh/dvitaa/jsPsych-in-Qualtrics65/countingstroop/img/2incon4.png,52.0,incongruent,4,image-keyboard-response,119,261771,0.0-4.0-0.108,True,0,R_3CZZ2kfZiHqB8kL
319,704.8000000119209,https://cdn.jsdelivr.net/gh/dvitaa/jsPsych-in-Qualtrics65/countingstroop/img/4incon2.png,50.0,incongruent,2,image-keyboard-response,116,229927,0.0-4.0-0.105,True,0,R_3iPFhdjhn83uXho
320,594.8000000119209,https://cdn.jsdelivr.net/gh/dvitaa/jsPsych-in-Qualtrics65/countingstroop/img/4con.png,51.0,congruent,4,image-keyboard-response,111,221061,0.0-4.0-0.100,False,0,R_3iPFhdjhn83uXho
321,583.0,https://cdn.jsdelivr.net/gh/dvitaa/jsPsych-in-Qualtrics65/countingstroop/img/2incon3.png,51.0,incongruent,3,image-keyboard-response,112,222546,0.0-4.0-0.101,True,0,R_3iPFhdjhn83uXho
322,417.19999998807907,https://cdn.jsdelivr.net/gh/dvitaa/jsPsych-in-Qualtrics65/countingstroop/img/4con.png,52.0,congruent,4,image-keyboard-response,113,224557,0.0-4.0-0.102,True,0,R_3iPFhdjhn83uXho
323,408.0,https://cdn.jsdelivr.net/gh/dvitaa/jsPsych-in-Qualtrics65/countingstroop/img/4con.png,52.0,congruent,4,image-keyboard-response,114,226621,0.0-4.0-0.103,True,0,R_3iPFhdjhn83uXho
324,408.9000000357628,https://cdn.jsdelivr.net/gh/dvitaa/jsPsych-in-Qualtrics65/countingstroop/img/4incon1.png,52.0,incongruent,1,image-keyboard-response,115,228386,0.0-4.0-0.104,False,0,R_3iPFhdjhn83uXho
325,512.3000000119209,https://cdn.jsdelivr.net/gh/dvitaa/jsPsych-in-Qualtrics65/countingstroop/img/1incon2.png,50.0,incongruent,2,image-keyboard-response,117,232408,0.0-4.0-0.106,True,0,R_3iPFhdjhn83uXho
326,953.3000000119209,https://cdn.jsdelivr.net/gh/dvitaa/jsPsych-in-Qualtrics65/countingstroop/img/4incon3.png,51.0,incongruent,3,image-keyboard-response,125,247693,0.0-4.0-0.114,True,0,R_3iPFhdjhn83uXho
327,560.3000000119209,https://cdn.jsdelivr.net/gh/dvitaa/jsPsych-in-Qualtrics65/countingstroop/img/3incon1.png,49.0,incongruent,1,image-keyboard-response,119,236172,0.0-4.0-0.108,True,0,R_3iPFhdjhn83uXho
328,503.69999998807907,https://cdn.jsdelivr.net/gh/dvitaa/jsPsych-in-Qualtrics65/countingstroop/img/4incon2.png,50.0,incongruent,2,image-keyboard-response,120,238082,0.0-4.0-0.109,True,0,R_3iPFhdjhn83uXho
329,516.3999999761581,https://cdn.jsdelivr.net/gh/dvitaa/jsPsych-in-Qualtrics65/countingstroop/img/3con.png,51.0,congruent,3,image-keyboard-response,121,240243,0.0-4.0-0.110,True,0,R_3iPFhdjhn83uXho
330,792.3999999761581,https://cdn.jsdelivr.net/gh/dvitaa/jsPsych-in-Qualtrics65/countingstroop/img/4incon2.png,50.0,incongruent,2,image-keyboard-response,122,241710,0.0-4.0-0.111,True,0,R_3iPFhdjhn83uXho
331,483.69999998807907,https://cdn.jsdelivr.net/gh/dvitaa/jsPsych-in-Qualtrics65/countingstroop/img/3con.png,51.0,congruent,3,image-keyboard-response,123,243879,0.0-4.0-0.112,True,0,R_3iPFhdjhn83uXho
332,434.80000001192093,https://cdn.jsdelivr.net/gh/dvitaa/jsPsych-in-Qualtrics65/countingstroop/img/3incon2.png,50.0,incongruent,2,image-keyboard-response,124,246234,0.0-4.0-0.113,True,0,R_3iPFhdjhn83uXho
333,580.6999999880791,https://cdn.jsdelivr.net/gh/dvitaa/jsPsych-in-Qualtrics65/countingstroop/img/1incon2.png,50.0,incongruent,2,image-keyboard-response,110,218552,0.0-4.0-0.99,True,0,R_3iPFhdjhn83uXho
334,424.19999998807907,https://cdn.jsdelivr.net/gh/dvitaa/jsPsych-in-Qualtrics65/countingstroop/img/1incon3.png,51.0,incongruent,3,image-keyboard-response,118,234445,0.0-4.0-0.107,True,0,R_3iPFhdjhn83uXho
335,724.3999999761581,https://cdn.jsdelivr.net/gh/dvitaa/jsPsych-in-Qualtrics65/countingstroop/img/4incon3.png,51.0,incongruent,3,image-keyboard-response,109,216685,0.0-4.0-0.98,True,0,R_3iPFhdjhn83uXho
336,482.0,https://cdn.jsdelivr.net/gh/dvitaa/jsPsych-in-Qualtrics65/countingstroop/img/3con.png,51.0,congruent,3,image-keyboard-response,91,184805,0.0-4.0-0.80,True,0,R_3iPFhdjhn83uXho
337,663.1999999880791,https://cdn.jsdelivr.net/gh/dvitaa/jsPsych-in-Qualtrics65/countingstroop/img/3incon4.png,52.0,incongruent,4,image-keyboard-response,107,212311,0.0-4.0-0.96,True,0,R_3iPFhdjhn83uXho
338,475.5,https://cdn.jsdelivr.net/gh/dvitaa/jsPsych-in-Qualtrics65/countingstroop/img/1con.png,49.0,congruent,1,image-keyboard-response,165,320837,0.0-4.0-0.154,True,0,R_3iPFhdjhn83uXho
339,574.8000000119209,https://cdn.jsdelivr.net/gh/dvitaa/jsPsych-in-Qualtrics65/countingstroop/img/2incon4.png,52.0,incongruent,4,image-keyboard-response,92,187168,0.0-4.0-0.81,True,0,R_3iPFhdjhn83uXho
340,567.3999999761581,https://cdn.jsdelivr.net/gh/dvitaa/jsPsych-in-Qualtrics65/countingstroop/img/1incon4.png,52.0,incongruent,4,image-keyboard-response,93,188289,0.0-4.0-0.82,True,0,R_3iPFhdjhn83uXho
341,597.8999999761581,https://cdn.jsdelivr.net/gh/dvitaa/jsPsych-in-Qualtrics65/countingstroop/img/3con.png,51.0,congruent,3,image-keyboard-response,94,189776,0.0-4.0-0.83,True,0,R_3iPFhdjhn83uXho
342,507.19999998807907,https://cdn.jsdelivr.net/gh/dvitaa/jsPsych-in-Qualtrics65/countingstroop/img/2con.png,50.0,congruent,2,image-keyboard-response,95,190856,0.0-4.0-0.84,True,0,R_3iPFhdjhn83uXho
343,484.39999997615814,https://cdn.jsdelivr.net/gh/dvitaa/jsPsych-in-Qualtrics65/countingstroop/img/3incon2.png,50.0,incongruent,2,image-keyboard-response,96,192069,0.0-4.0-0.85,True,0,R_3iPFhdjhn83uXho
344,488.30000001192093,https://cdn.jsdelivr.net/gh/dvitaa/jsPsych-in-Qualtrics65/countingstroop/img/4incon3.png,51.0,incongruent,3,image-keyboard-response,97,194449,0.0-4.0-0.86,True,0,R_3iPFhdjhn83uXho
345,582.5,https://cdn.jsdelivr.net/gh/dvitaa/jsPsych-in-Qualtrics65/countingstroop/img/2incon3.png,51.0,incongruent,3,image-keyboard-response,108,214846,0.0-4.0-0.97,True,0,R_3iPFhdjhn83uXho
346,451.5,https://cdn.jsdelivr.net/gh/dvitaa/jsPsych-in-Qualtrics65/countingstroop/img/4con.png,51.0,congruent,4,image-keyboard-response,98,196744,0.0-4.0-0.87,False,0,R_3iPFhdjhn83uXho
347,431.0,https://cdn.jsdelivr.net/gh/dvitaa/jsPsych-in-Qualtrics65/countingstroop/img/2con.png,50.0,congruent,2,image-keyboard-response,100,200381,0.0-4.0-0.89,True,0,R_3iPFhdjhn83uXho
348,421.9000000357628,https://cdn.jsdelivr.net/gh/dvitaa/jsPsych-in-Qualtrics65/countingstroop/img/4incon2.png,50.0,incongruent,2,image-keyboard-response,101,202421,0.0-4.0-0.90,True,0,R_3iPFhdjhn83uXho
349,724.5,https://cdn.jsdelivr.net/gh/dvitaa/jsPsych-in-Qualtrics65/countingstroop/img/3incon4.png,52.0,incongruent,4,image-keyboard-response,102,204741,0.0-4.0-0.91,True,0,R_3iPFhdjhn83uXho
350,642.5,https://cdn.jsdelivr.net/gh/dvitaa/jsPsych-in-Qualtrics65/countingstroop/img/1con.png,49.0,congruent,1,image-keyboard-response,103,207089,0.0-4.0-0.92,True,0,R_3iPFhdjhn83uXho
351,464.60000002384186,https://cdn.jsdelivr.net/gh/dvitaa/jsPsych-in-Qualtrics65/countingstroop/img/2incon1.png,49.0,incongruent,1,image-keyboard-response,104,208211,0.0-4.0-0.93,True,0,R_3iPFhdjhn83uXho
352,571.1000000238419,https://cdn.jsdelivr.net/gh/dvitaa/jsPsych-in-Qualtrics65/countingstroop/img/4incon3.png,51.0,incongruent,3,image-keyboard-response,105,209531,0.0-4.0-0.94,True,0,R_3iPFhdjhn83uXho
353,487.5,https://cdn.jsdelivr.net/gh/dvitaa/jsPsych-in-Qualtrics65/countingstroop/img/4incon3.png,51.0,incongruent,3,image-keyboard-response,106,210771,0.0-4.0-0.95,True,0,R_3iPFhdjhn83uXho
354,679.5,https://cdn.jsdelivr.net/gh/dvitaa/jsPsych-in-Qualtrics65/countingstroop/img/2con.png,50.0,congruent,2,image-keyboard-response,99,198985,0.0-4.0-0.88,True,0,R_3iPFhdjhn83uXho
355,496.0,https://cdn.jsdelivr.net/gh/dvitaa/jsPsych-in-Qualtrics65/countingstroop/img/1con.png,49.0,congruent,1,image-keyboard-response,126,250039,0.0-4.0-0.115,True,0,R_3iPFhdjhn83uXho
356,706.1999999880791,https://cdn.jsdelivr.net/gh/dvitaa/jsPsych-in-Qualtrics65/countingstroop/img/4incon1.png,49.0,incongruent,1,image-keyboard-response,145,282323,0.0-4.0-0.134,True,0,R_3iPFhdjhn83uXho
357,559.3000000119209,https://cdn.jsdelivr.net/gh/dvitaa/jsPsych-in-Qualtrics65/countingstroop/img/1incon3.png,51.0,incongruent,3,image-keyboard-response,128,254474,0.0-4.0-0.117,True,0,R_3iPFhdjhn83uXho
358,508.60000002384186,https://cdn.jsdelivr.net/gh/dvitaa/jsPsych-in-Qualtrics65/countingstroop/img/1incon3.png,50.0,incongruent,3,image-keyboard-response,150,292227,0.0-4.0-0.139,False,0,R_3iPFhdjhn83uXho
359,861.1999999880791,https://cdn.jsdelivr.net/gh/dvitaa/jsPsych-in-Qualtrics65/countingstroop/img/3incon4.png,52.0,incongruent,4,image-keyboard-response,151,294035,0.0-4.0-0.140,True,0,R_3iPFhdjhn83uXho
360,516.1999999880791,https://cdn.jsdelivr.net/gh/dvitaa/jsPsych-in-Qualtrics65/countingstroop/img/4incon1.png,50.0,incongruent,1,image-keyboard-response,152,296426,0.0-4.0-0.141,False,0,R_3iPFhdjhn83uXho
361,462.80000001192093,https://cdn.jsdelivr.net/gh/dvitaa/jsPsych-in-Qualtrics65/countingstroop/img/1incon2.png,50.0,incongruent,2,image-keyboard-response,153,298747,0.0-4.0-0.142,True,0,R_3iPFhdjhn83uXho
362,761.5999999642372,https://cdn.jsdelivr.net/gh/dvitaa/jsPsych-in-Qualtrics65/countingstroop/img/2incon4.png,52.0,incongruent,4,image-keyboard-response,154,300206,0.0-4.0-0.143,True,0,R_3iPFhdjhn83uXho
363,682.8999999761581,https://cdn.jsdelivr.net/gh/dvitaa/jsPsych-in-Qualtrics65/countingstroop/img/3incon4.png,52.0,incongruent,4,image-keyboard-response,155,301568,0.0-4.0-0.144,True,0,R_3iPFhdjhn83uXho
364,618.0,https://cdn.jsdelivr.net/gh/dvitaa/jsPsych-in-Qualtrics65/countingstroop/img/1incon2.png,50.0,incongruent,2,image-keyboard-response,156,303418,0.0-4.0-0.145,True,0,R_3iPFhdjhn83uXho
365,637.5999999642372,https://cdn.jsdelivr.net/gh/dvitaa/jsPsych-in-Qualtrics65/countingstroop/img/3incon1.png,49.0,incongruent,1,image-keyboard-response,149,290626,0.0-4.0-0.138,True,0,R_3iPFhdjhn83uXho
366,521.8000000119209,https://cdn.jsdelivr.net/gh/dvitaa/jsPsych-in-Qualtrics65/countingstroop/img/4con.png,52.0,congruent,4,image-keyboard-response,157,305220,0.0-4.0-0.146,True,0,R_3iPFhdjhn83uXho
367,566.0999999642372,https://cdn.jsdelivr.net/gh/dvitaa/jsPsych-in-Qualtrics65/countingstroop/img/2con.png,50.0,congruent,2,image-keyboard-response,159,309009,0.0-4.0-0.148,True,0,R_3iPFhdjhn83uXho
368,545.3000000119209,https://cdn.jsdelivr.net/gh/dvitaa/jsPsych-in-Qualtrics65/countingstroop/img/1incon4.png,52.0,incongruent,4,image-keyboard-response,160,311410,0.0-4.0-0.149,True,0,R_3iPFhdjhn83uXho
369,545.3999999761581,https://cdn.jsdelivr.net/gh/dvitaa/jsPsych-in-Qualtrics65/countingstroop/img/1incon2.png,50.0,incongruent,2,image-keyboard-response,161,312906,0.0-4.0-0.150,True,0,R_3iPFhdjhn83uXho
370,498.5,https://cdn.jsdelivr.net/gh/dvitaa/jsPsych-in-Qualtrics65/countingstroop/img/4incon1.png,49.0,incongruent,1,image-keyboard-response,162,315293,0.0-4.0-0.151,True,0,R_3iPFhdjhn83uXho
371,622.1999999880791,https://cdn.jsdelivr.net/gh/dvitaa/jsPsych-in-Qualtrics65/countingstroop/img/1incon4.png,52.0,incongruent,4,image-keyboard-response,163,316757,0.0-4.0-0.152,True,0,R_3iPFhdjhn83uXho
372,479.5999999642372,https://cdn.jsdelivr.net/gh/dvitaa/jsPsych-in-Qualtrics65/countingstroop/img/1con.png,49.0,congruent,1,image-keyboard-response,164,319041,0.0-4.0-0.153,True,0,R_3iPFhdjhn83uXho
373,471.80000001192093,https://cdn.jsdelivr.net/gh/dvitaa/jsPsych-in-Qualtrics65/countingstroop/img/2con.png,50.0,congruent,2,image-keyboard-response,90,183087,0.0-4.0-0.79,True,0,R_3iPFhdjhn83uXho
374,425.30000001192093,https://cdn.jsdelivr.net/gh/dvitaa/jsPsych-in-Qualtrics65/countingstroop/img/1incon4.png,52.0,incongruent,4,image-keyboard-response,158,307637,0.0-4.0-0.147,True,0,R_3iPFhdjhn83uXho
375,651.8000000119209,https://cdn.jsdelivr.net/gh/dvitaa/jsPsych-in-Qualtrics65/countingstroop/img/3incon4.png,52.0,incongruent,4,image-keyboard-response,127,252145,0.0-4.0-0.116,True,0,R_3iPFhdjhn83uXho
376,516.8000000119209,https://cdn.jsdelivr.net/gh/dvitaa/jsPsych-in-Qualtrics65/countingstroop/img/2incon4.png,51.0,incongruent,4,image-keyboard-response,148,288189,0.0-4.0-0.137,False,0,R_3iPFhdjhn83uXho
377,626.3000000119209,https://cdn.jsdelivr.net/gh/dvitaa/jsPsych-in-Qualtrics65/countingstroop/img/4incon3.png,51.0,incongruent,3,image-keyboard-response,146,284295,0.0-4.0-0.135,True,0,R_3iPFhdjhn83uXho
378,659.1000000238419,https://cdn.jsdelivr.net/gh/dvitaa/jsPsych-in-Qualtrics65/countingstroop/img/4incon1.png,49.0,incongruent,1,image-keyboard-response,129,255950,0.0-4.0-0.118,True,0,R_3iPFhdjhn83uXho
379,444.19999998807907,https://cdn.jsdelivr.net/gh/dvitaa/jsPsych-in-Qualtrics65/countingstroop/img/3incon2.png,50.0,incongruent,2,image-keyboard-response,130,257818,0.0-4.0-0.119,True,0,R_3iPFhdjhn83uXho
380,465.30000001192093,https://cdn.jsdelivr.net/gh/dvitaa/jsPsych-in-Qualtrics65/countingstroop/img/2incon1.png,50.0,incongruent,1,image-keyboard-response,131,259129,0.0-4.0-0.120,False,0,R_3iPFhdjhn83uXho
381,453.19999998807907,https://cdn.jsdelivr.net/gh/dvitaa/jsPsych-in-Qualtrics65/countingstroop/img/1con.png,49.0,congruent,1,image-keyboard-response,132,260667,0.0-4.0-0.121,True,0,R_3iPFhdjhn83uXho
382,799.6000000238419,https://cdn.jsdelivr.net/gh/dvitaa/jsPsych-in-Qualtrics65/countingstroop/img/4incon1.png,52.0,incongruent,1,image-keyboard-response,133,262488,0.0-4.0-0.122,False,0,R_3iPFhdjhn83uXho
383,582.2000000476837,https://cdn.jsdelivr.net/gh/dvitaa/jsPsych-in-Qualtrics65/countingstroop/img/1incon2.png,50.0,incongruent,2,image-keyboard-response,134,264511,0.0-4.0-0.123,True,0,R_3iPFhdjhn83uXho
384,506.19999998807907,https://cdn.jsdelivr.net/gh/dvitaa/jsPsych-in-Qualtrics65/countingstroop/img/4incon3.png,51.0,incongruent,3,image-keyboard-response,135,266421,0.0-4.0-0.124,True,0,R_3iPFhdjhn83uXho
385,445.80000001192093,https://cdn.jsdelivr.net/gh/dvitaa/jsPsych-in-Qualtrics65/countingstroop/img/3incon4.png,52.0,incongruent,4,image-keyboard-response,147,286376,0.0-4.0-0.136,True,0,R_3iPFhdjhn83uXho
386,563.9000000357628,https://cdn.jsdelivr.net/gh/dvitaa/jsPsych-in-Qualtrics65/countingstroop/img/1con.png,49.0,congruent,1,image-keyboard-response,136,268580,0.0-4.0-0.125,True,0,R_3iPFhdjhn83uXho
387,465.89999997615814,https://cdn.jsdelivr.net/gh/dvitaa/jsPsych-in-Qualtrics65/countingstroop/img/1incon2.png,50.0,incongruent,2,image-keyboard-response,138,271597,0.0-4.0-0.127,True,0,R_3iPFhdjhn83uXho
388,534.6999999880791,https://cdn.jsdelivr.net/gh/dvitaa/jsPsych-in-Qualtrics65/countingstroop/img/3con.png,51.0,congruent,3,image-keyboard-response,139,273401,0.0-4.0-0.128,True,0,R_3iPFhdjhn83uXho
389,540.6000000238419,https://cdn.jsdelivr.net/gh/dvitaa/jsPsych-in-Qualtrics65/countingstroop/img/1incon2.png,51.0,incongruent,2,image-keyboard-response,140,274813,0.0-4.0-0.129,False,0,R_3iPFhdjhn83uXho
390,635.3999999761581,https://cdn.jsdelivr.net/gh/dvitaa/jsPsych-in-Qualtrics65/countingstroop/img/2incon1.png,49.0,incongruent,1,image-keyboard-response,141,276320,0.0-4.0-0.130,True,0,R_3iPFhdjhn83uXho
391,639.6000000238419,https://cdn.jsdelivr.net/gh/dvitaa/jsPsych-in-Qualtrics65/countingstroop/img/2incon4.png,52.0,incongruent,4,image-keyboard-response,142,277688,0.0-4.0-0.131,True,0,R_3iPFhdjhn83uXho
392,565.9000000357628,https://cdn.jsdelivr.net/gh/dvitaa/jsPsych-in-Qualtrics65/countingstroop/img/4incon3.png,51.0,incongruent,3,image-keyboard-response,143,278896,0.0-4.0-0.132,True,0,R_3iPFhdjhn83uXho
393,686.4000000357628,https://cdn.jsdelivr.net/gh/dvitaa/jsPsych-in-Qualtrics65/countingstroop/img/1incon4.png,52.0,incongruent,4,image-keyboard-response,144,280393,0.0-4.0-0.133,True,0,R_3iPFhdjhn83uXho
394,728.3000000119209,https://cdn.jsdelivr.net/gh/dvitaa/jsPsych-in-Qualtrics65/countingstroop/img/4incon3.png,51.0,incongruent,3,image-keyboard-response,137,270039,0.0-4.0-0.126,True,0,R_3iPFhdjhn83uXho
395,705.2999999523163,https://cdn.jsdelivr.net/gh/dvitaa/jsPsych-in-Qualtrics65/countingstroop/img/3incon2.png,50.0,incongruent,2,image-keyboard-response,89,180814,0.0-4.0-0.78,True,0,R_3iPFhdjhn83uXho
396,705.1999999880791,https://cdn.jsdelivr.net/gh/dvitaa/jsPsych-in-Qualtrics65/countingstroop/img/4incon3.png,51.0,incongruent,3,image-keyboard-response,50,104766,0.0-4.0-0.39,True,0,R_3iPFhdjhn83uXho
397,770.7000000476837,https://cdn.jsdelivr.net/gh/dvitaa/jsPsych-in-Qualtrics65/countingstroop/img/3incon2.png,50.0,incongruent,2,image-keyboard-response,87,176182,0.0-4.0-0.76,True,0,R_3iPFhdjhn83uXho
398,614.6999999880791,https://cdn.jsdelivr.net/gh/dvitaa/jsPsych-in-Qualtrics65/countingstroop/img/2incon1.png,49.0,incongruent,1,image-keyboard-response,30,66059,0.0-4.0-0.19,True,0,R_3iPFhdjhn83uXho
399,696.0999999642372,https://cdn.jsdelivr.net/gh/dvitaa/jsPsych-in-Qualtrics65/countingstroop/img/3con.png,51.0,congruent,3,image-keyboard-response,31,67284,0.0-4.0-0.20,True,0,R_3iPFhdjhn83uXho
400,620.1999999880791,https://cdn.jsdelivr.net/gh/dvitaa/jsPsych-in-Qualtrics65/countingstroop/img/3incon1.png,49.0,incongruent,1,image-keyboard-response,32,69844,0.0-4.0-0.21,True,0,R_3iPFhdjhn83uXho
401,509.30000001192093,https://cdn.jsdelivr.net/gh/dvitaa/jsPsych-in-Qualtrics65/countingstroop/img/1con.png,49.0,congruent,1,image-keyboard-response,33,71614,0.0-4.0-0.22,True,0,R_3iPFhdjhn83uXho
402,507.30000001192093,https://cdn.jsdelivr.net/gh/dvitaa/jsPsych-in-Qualtrics65/countingstroop/img/3incon2.png,50.0,incongruent,2,image-keyboard-response,34,73011,0.0-4.0-0.23,True,0,R_3iPFhdjhn83uXho
403,551.5,https://cdn.jsdelivr.net/gh/dvitaa/jsPsych-in-Qualtrics65/countingstroop/img/4incon1.png,49.0,incongruent,1,image-keyboard-response,35,74147,0.0-4.0-0.24,True,0,R_3iPFhdjhn83uXho
404,737.1000000238419,https://cdn.jsdelivr.net/gh/dvitaa/jsPsych-in-Qualtrics65/countingstroop/img/2incon1.png,49.0,incongruent,1,image-keyboard-response,36,75539,0.0-4.0-0.25,True,0,R_3iPFhdjhn83uXho
405,645.0,https://cdn.jsdelivr.net/gh/dvitaa/jsPsych-in-Qualtrics65/countingstroop/img/3con.png,51.0,congruent,3,image-keyboard-response,29,64737,0.0-4.0-0.18,True,0,R_3iPFhdjhn83uXho
406,518.8000000119209,https://cdn.jsdelivr.net/gh/dvitaa/jsPsych-in-Qualtrics65/countingstroop/img/3incon1.png,49.0,incongruent,1,image-keyboard-response,37,76610,0.0-4.0-0.26,True,0,R_3iPFhdjhn83uXho
407,727.7000000476837,https://cdn.jsdelivr.net/gh/dvitaa/jsPsych-in-Qualtrics65/countingstroop/img/3incon4.png,52.0,incongruent,4,image-keyboard-response,39,80615,0.0-4.0-0.28,True,0,R_3iPFhdjhn83uXho
408,762.6000000238419,https://cdn.jsdelivr.net/gh/dvitaa/jsPsych-in-Qualtrics65/countingstroop/img/1incon3.png,51.0,incongruent,3,image-keyboard-response,40,82872,0.0-4.0-0.29,True,0,R_3iPFhdjhn83uXho
409,581.0999999642372,https://cdn.jsdelivr.net/gh/dvitaa/jsPsych-in-Qualtrics65/countingstroop/img/3con.png,51.0,congruent,3,image-keyboard-response,41,85142,0.0-4.0-0.30,True,0,R_3iPFhdjhn83uXho
410,417.39999997615814,https://cdn.jsdelivr.net/gh/dvitaa/jsPsych-in-Qualtrics65/countingstroop/img/3con.png,51.0,congruent,3,image-keyboard-response,42,86877,0.0-4.0-0.31,True,0,R_3iPFhdjhn83uXho
411,1123.5999999642372,https://cdn.jsdelivr.net/gh/dvitaa/jsPsych-in-Qualtrics65/countingstroop/img/4incon3.png,52.0,incongruent,3,image-keyboard-response,43,89864,0.0-4.0-0.32,False,0,R_3iPFhdjhn83uXho
412,788.5,https://cdn.jsdelivr.net/gh/dvitaa/jsPsych-in-Qualtrics65/countingstroop/img/1incon4.png,52.0,incongruent,4,image-keyboard-response,44,92182,0.0-4.0-0.33,True,0,R_3iPFhdjhn83uXho
413,659.8000000119209,https://cdn.jsdelivr.net/gh/dvitaa/jsPsych-in-Qualtrics65/countingstroop/img/2incon4.png,52.0,incongruent,4,image-keyboard-response,45,94627,0.0-4.0-0.34,True,0,R_3iPFhdjhn83uXho
414,459.0,https://cdn.jsdelivr.net/gh/dvitaa/jsPsych-in-Qualtrics65/countingstroop/img/2incon1.png,49.0,incongruent,1,image-keyboard-response,38,78594,0.0-4.0-0.27,True,0,R_3iPFhdjhn83uXho
415,559.6000000238419,https://cdn.jsdelivr.net/gh/dvitaa/jsPsych-in-Qualtrics65/countingstroop/img/2incon4.png,52.0,incongruent,4,image-keyboard-response,46,97091,0.0-4.0-0.35,True,0,R_3iPFhdjhn83uXho
416,702.3000000119209,https://cdn.jsdelivr.net/gh/dvitaa/jsPsych-in-Qualtrics65/countingstroop/img/4incon1.png,49.0,incongruent,1,image-keyboard-response,28,63388,0.0-4.0-0.17,True,0,R_3iPFhdjhn83uXho
417,651.4000000357628,https://cdn.jsdelivr.net/gh/dvitaa/jsPsych-in-Qualtrics65/countingstroop/img/3incon2.png,50.0,incongruent,2,image-keyboard-response,26,60755,0.0-4.0-0.15,True,0,R_3iPFhdjhn83uXho
418,666.3999999761581,https://cdn.jsdelivr.net/gh/dvitaa/jsPsych-in-Qualtrics65/countingstroop/img/4incon3.png,51.0,incongruent,3,image-keyboard-response,166,322032,0.0-4.0-0.155,True,0,R_3iPFhdjhn83uXho
419,860.0,https://cdn.jsdelivr.net/gh/dvitaa/jsPsych-in-Qualtrics65/countingstroop/img/3incon1.png,49.0,incongruent,1,image-keyboard-response,11,29018,0.0-4.0-0.0,True,0,R_3iPFhdjhn83uXho
420,848.9000000357628,https://cdn.jsdelivr.net/gh/dvitaa/jsPsych-in-Qualtrics65/countingstroop/img/1incon4.png,52.0,incongruent,4,image-keyboard-response,12,30905,0.0-4.0-0.1,True,0,R_3iPFhdjhn83uXho
421,868.1000000238419,https://cdn.jsdelivr.net/gh/dvitaa/jsPsych-in-Qualtrics65/countingstroop/img/3incon4.png,52.0,incongruent,4,image-keyboard-response,13,33171,0.0-4.0-0.2,True,0,R_3iPFhdjhn83uXho
422,816.0,https://cdn.jsdelivr.net/gh/dvitaa/jsPsych-in-Qualtrics65/countingstroop/img/4incon2.png,50.0,incongruent,2,image-keyboard-response,14,35075,0.0-4.0-0.3,True,0,R_3iPFhdjhn83uXho
423,536.3000000119209,https://cdn.jsdelivr.net/gh/dvitaa/jsPsych-in-Qualtrics65/countingstroop/img/2con.png,50.0,congruent,2,image-keyboard-response,15,36682,0.0-4.0-0.4,True,0,R_3iPFhdjhn83uXho
424,704.1000000238419,https://cdn.jsdelivr.net/gh/dvitaa/jsPsych-in-Qualtrics65/countingstroop/img/3incon4.png,52.0,incongruent,4,image-keyboard-response,16,38789,0.0-4.0-0.5,True,0,R_3iPFhdjhn83uXho
425,859.6000000238419,https://cdn.jsdelivr.net/gh/dvitaa/jsPsych-in-Qualtrics65/countingstroop/img/3con.png,51.0,congruent,3,image-keyboard-response,27,62173,0.0-4.0-0.16,True,0,R_3iPFhdjhn83uXho
426,647.8999999761581,https://cdn.jsdelivr.net/gh/dvitaa/jsPsych-in-Qualtrics65/countingstroop/img/1con.png,49.0,congruent,1,image-keyboard-response,17,40887,0.0-4.0-0.6,True,0,R_3iPFhdjhn83uXho
427,638.3999999761581,https://cdn.jsdelivr.net/gh/dvitaa/jsPsych-in-Qualtrics65/countingstroop/img/4incon2.png,50.0,incongruent,2,image-keyboard-response,19,45678,0.0-4.0-0.8,True,0,R_3iPFhdjhn83uXho
428,830.3999999761581,https://cdn.jsdelivr.net/gh/dvitaa/jsPsych-in-Qualtrics65/countingstroop/img/2incon1.png,49.0,incongruent,1,image-keyboard-response,20,47960,0.0-4.0-0.9,True,0,R_3iPFhdjhn83uXho
429,838.3000000119209,https://cdn.jsdelivr.net/gh/dvitaa/jsPsych-in-Qualtrics65/countingstroop/img/3con.png,51.0,congruent,3,image-keyboard-response,21,50342,0.0-4.0-0.10,True,0,R_3iPFhdjhn83uXho
430,833.7999999523163,https://cdn.jsdelivr.net/gh/dvitaa/jsPsych-in-Qualtrics65/countingstroop/img/2incon3.png,51.0,incongruent,3,image-keyboard-response,22,53078,0.0-4.0-0.11,True,0,R_3iPFhdjhn83uXho
431,649.0999999642372,https://cdn.jsdelivr.net/gh/dvitaa/jsPsych-in-Qualtrics65/countingstroop/img/3incon2.png,50.0,incongruent,2,image-keyboard-response,23,55726,0.0-4.0-0.12,True,0,R_3iPFhdjhn83uXho
432,702.6999999880791,https://cdn.jsdelivr.net/gh/dvitaa/jsPsych-in-Qualtrics65/countingstroop/img/3incon1.png,49.0,incongruent,1,image-keyboard-response,24,57416,0.0-4.0-0.13,True,0,R_3iPFhdjhn83uXho
433,686.1999999880791,https://cdn.jsdelivr.net/gh/dvitaa/jsPsych-in-Qualtrics65/countingstroop/img/1incon4.png,52.0,incongruent,4,image-keyboard-response,25,59209,0.0-4.0-0.14,True,0,R_3iPFhdjhn83uXho
434,699.3000000119209,https://cdn.jsdelivr.net/gh/dvitaa/jsPsych-in-Qualtrics65/countingstroop/img/1incon4.png,52.0,incongruent,4,image-keyboard-response,18,43058,0.0-4.0-0.7,True,0,R_3iPFhdjhn83uXho
435,625.9000000357628,https://cdn.jsdelivr.net/gh/dvitaa/jsPsych-in-Qualtrics65/countingstroop/img/4con.png,52.0,congruent,4,image-keyboard-response,88,178232,0.0-4.0-0.77,True,0,R_3iPFhdjhn83uXho
436,609.8000000119209,https://cdn.jsdelivr.net/gh/dvitaa/jsPsych-in-Qualtrics65/countingstroop/img/2incon1.png,49.0,incongruent,1,image-keyboard-response,47,99422,0.0-4.0-0.36,True,0,R_3iPFhdjhn83uXho
437,618.7000000476837,https://cdn.jsdelivr.net/gh/dvitaa/jsPsych-in-Qualtrics65/countingstroop/img/2con.png,50.0,congruent,2,image-keyboard-response,49,103530,0.0-4.0-0.38,True,0,R_3iPFhdjhn83uXho
438,443.5999999642372,https://cdn.jsdelivr.net/gh/dvitaa/jsPsych-in-Qualtrics65/countingstroop/img/2incon1.png,49.0,incongruent,1,image-keyboard-response,71,146632,0.0-4.0-0.60,True,0,R_3iPFhdjhn83uXho
439,700.8999999761581,https://cdn.jsdelivr.net/gh/dvitaa/jsPsych-in-Qualtrics65/countingstroop/img/3incon4.png,52.0,incongruent,4,image-keyboard-response,72,148207,0.0-4.0-0.61,True,0,R_3iPFhdjhn83uXho
440,595.6000000238419,https://cdn.jsdelivr.net/gh/dvitaa/jsPsych-in-Qualtrics65/countingstroop/img/2incon3.png,51.0,incongruent,3,image-keyboard-response,73,150161,0.0-4.0-0.62,True,0,R_3iPFhdjhn83uXho
441,641.3000000119209,https://cdn.jsdelivr.net/gh/dvitaa/jsPsych-in-Qualtrics65/countingstroop/img/3incon2.png,50.0,incongruent,2,image-keyboard-response,74,152072,0.0-4.0-0.63,True,0,R_3iPFhdjhn83uXho
442,400.89999997615814,https://cdn.jsdelivr.net/gh/dvitaa/jsPsych-in-Qualtrics65/countingstroop/img/2con.png,50.0,congruent,2,image-keyboard-response,75,153364,0.0-4.0-0.64,True,0,R_3iPFhdjhn83uXho
443,605.9000000357628,https://cdn.jsdelivr.net/gh/dvitaa/jsPsych-in-Qualtrics65/countingstroop/img/1incon3.png,51.0,incongruent,3,image-keyboard-response,76,155514,0.0-4.0-0.65,True,0,R_3iPFhdjhn83uXho
444,604.7999999523163,https://cdn.jsdelivr.net/gh/dvitaa/jsPsych-in-Qualtrics65/countingstroop/img/3incon1.png,49.0,incongruent,1,image-keyboard-response,77,157069,0.0-4.0-0.66,True,0,R_3iPFhdjhn83uXho
445,556.3000000119209,https://cdn.jsdelivr.net/gh/dvitaa/jsPsych-in-Qualtrics65/countingstroop/img/2con.png,50.0,congruent,2,image-keyboard-response,70,144405,0.0-4.0-0.59,True,0,R_3iPFhdjhn83uXho
446,594.6000000238419,https://cdn.jsdelivr.net/gh/dvitaa/jsPsych-in-Qualtrics65/countingstroop/img/4con.png,52.0,congruent,4,image-keyboard-response,78,159404,0.0-4.0-0.67,True,0,R_3iPFhdjhn83uXho
447,780.3000000119209,https://cdn.jsdelivr.net/gh/dvitaa/jsPsych-in-Qualtrics65/countingstroop/img/1incon3.png,51.0,incongruent,3,image-keyboard-response,80,163008,0.0-4.0-0.69,True,0,R_3iPFhdjhn83uXho
448,536.3999999761581,https://cdn.jsdelivr.net/gh/dvitaa/jsPsych-in-Qualtrics65/countingstroop/img/2incon3.png,51.0,incongruent,3,image-keyboard-response,81,164546,0.0-4.0-0.70,True,0,R_3iPFhdjhn83uXho
449,475.60000002384186,https://cdn.jsdelivr.net/gh/dvitaa/jsPsych-in-Qualtrics65/countingstroop/img/1incon2.png,50.0,incongruent,2,image-keyboard-response,82,166686,0.0-4.0-0.71,True,0,R_3iPFhdjhn83uXho
450,493.9000000357628,https://cdn.jsdelivr.net/gh/dvitaa/jsPsych-in-Qualtrics65/countingstroop/img/1con.png,49.0,congruent,1,image-keyboard-response,83,167900,0.0-4.0-0.72,True,0,R_3iPFhdjhn83uXho
451,703.3000000119209,https://cdn.jsdelivr.net/gh/dvitaa/jsPsych-in-Qualtrics65/countingstroop/img/2incon4.png,52.0,incongruent,4,image-keyboard-response,84,169677,0.0-4.0-0.73,True,0,R_3iPFhdjhn83uXho
452,507.89999997615814,https://cdn.jsdelivr.net/gh/dvitaa/jsPsych-in-Qualtrics65/countingstroop/img/2incon3.png,51.0,incongruent,3,image-keyboard-response,85,171856,0.0-4.0-0.74,True,0,R_3iPFhdjhn83uXho
453,711.1999999880791,https://cdn.jsdelivr.net/gh/dvitaa/jsPsych-in-Qualtrics65/countingstroop/img/1incon4.png,52.0,incongruent,4,image-keyboard-response,86,174271,0.0-4.0-0.75,True,0,R_3iPFhdjhn83uXho
454,527.7000000476837,https://cdn.jsdelivr.net/gh/dvitaa/jsPsych-in-Qualtrics65/countingstroop/img/3con.png,51.0,congruent,3,image-keyboard-response,79,160979,0.0-4.0-0.68,True,0,R_3iPFhdjhn83uXho
455,699.5999999642372,https://cdn.jsdelivr.net/gh/dvitaa/jsPsych-in-Qualtrics65/countingstroop/img/2incon4.png,52.0,incongruent,4,image-keyboard-response,48,102055,0.0-4.0-0.37,True,0,R_3iPFhdjhn83uXho
456,567.2999999523163,https://cdn.jsdelivr.net/gh/dvitaa/jsPsych-in-Qualtrics65/countingstroop/img/3con.png,51.0,congruent,3,image-keyboard-response,69,142396,0.0-4.0-0.58,True,0,R_3iPFhdjhn83uXho
457,530.3000000119209,https://cdn.jsdelivr.net/gh/dvitaa/jsPsych-in-Qualtrics65/countingstroop/img/4incon1.png,49.0,incongruent,1,image-keyboard-response,67,138237,0.0-4.0-0.56,True,0,R_3iPFhdjhn83uXho
458,590.0,https://cdn.jsdelivr.net/gh/dvitaa/jsPsych-in-Qualtrics65/countingstroop/img/1incon2.png,50.0,incongruent,2,image-keyboard-response,51,107016,0.0-4.0-0.40,True,0,R_3iPFhdjhn83uXho
459,467.19999998807907,https://cdn.jsdelivr.net/gh/dvitaa/jsPsych-in-Qualtrics65/countingstroop/img/3incon1.png,49.0,incongruent,1,image-keyboard-response,52,108904,0.0-4.0-0.41,True,0,R_3iPFhdjhn83uXho
460,529.0,https://cdn.jsdelivr.net/gh/dvitaa/jsPsych-in-Qualtrics65/countingstroop/img/2con.png,50.0,congruent,2,image-keyboard-response,53,110337,0.0-4.0-0.42,True,0,R_3iPFhdjhn83uXho
461,662.1999999880791,https://cdn.jsdelivr.net/gh/dvitaa/jsPsych-in-Qualtrics65/countingstroop/img/2con.png,50.0,congruent,2,image-keyboard-response,54,112513,0.0-4.0-0.43,True,0,R_3iPFhdjhn83uXho
462,575.7999999523163,https://cdn.jsdelivr.net/gh/dvitaa/jsPsych-in-Qualtrics65/countingstroop/img/4incon1.png,49.0,incongruent,1,image-keyboard-response,55,114769,0.0-4.0-0.44,True,0,R_3iPFhdjhn83uXho
463,485.19999998807907,https://cdn.jsdelivr.net/gh/dvitaa/jsPsych-in-Qualtrics65/countingstroop/img/1con.png,49.0,congruent,1,image-keyboard-response,56,116597,0.0-4.0-0.45,True,0,R_3iPFhdjhn83uXho
464,399.5,https://cdn.jsdelivr.net/gh/dvitaa/jsPsych-in-Qualtrics65/countingstroop/img/1con.png,49.0,congruent,1,image-keyboard-response,57,118357,0.0-4.0-0.46,True,0,R_3iPFhdjhn83uXho
465,725.1000000238419,https://cdn.jsdelivr.net/gh/dvitaa/jsPsych-in-Qualtrics65/countingstroop/img/1incon3.png,51.0,incongruent,3,image-keyboard-response,68,140458,0.0-4.0-0.57,True,0,R_3iPFhdjhn83uXho
466,723.5999999642372,https://cdn.jsdelivr.net/gh/dvitaa/jsPsych-in-Qualtrics65/countingstroop/img/1incon4.png,52.0,incongruent,4,image-keyboard-response,58,120161,0.0-4.0-0.47,True,0,R_3iPFhdjhn83uXho
467,612.5,https://cdn.jsdelivr.net/gh/dvitaa/jsPsych-in-Qualtrics65/countingstroop/img/4incon2.png,50.0,incongruent,2,image-keyboard-response,60,124387,0.0-4.0-0.49,True,0,R_3iPFhdjhn83uXho
468,594.1999999880791,https://cdn.jsdelivr.net/gh/dvitaa/jsPsych-in-Qualtrics65/countingstroop/img/3incon4.png,52.0,incongruent,4,image-keyboard-response,61,126614,0.0-4.0-0.50,True,0,R_3iPFhdjhn83uXho
469,530.1999999880791,https://cdn.jsdelivr.net/gh/dvitaa/jsPsych-in-Qualtrics65/countingstroop/img/1con.png,49.0,congruent,1,image-keyboard-response,62,128973,0.0-4.0-0.51,True,0,R_3iPFhdjhn83uXho
470,586.5,https://cdn.jsdelivr.net/gh/dvitaa/jsPsych-in-Qualtrics65/countingstroop/img/4incon1.png,49.0,incongruent,1,image-keyboard-response,63,130955,0.0-4.0-0.52,True,0,R_3iPFhdjhn83uXho
471,465.80000001192093,https://cdn.jsdelivr.net/gh/dvitaa/jsPsych-in-Qualtrics65/countingstroop/img/3incon1.png,49.0,incongruent,1,image-keyboard-response,64,132466,0.0-4.0-0.53,True,0,R_3iPFhdjhn83uXho
472,692.6999999880791,https://cdn.jsdelivr.net/gh/dvitaa/jsPsych-in-Qualtrics65/countingstroop/img/2incon4.png,52.0,incongruent,4,image-keyboard-response,65,134180,0.0-4.0-0.54,True,0,R_3iPFhdjhn83uXho
473,575.3999999761581,https://cdn.jsdelivr.net/gh/dvitaa/jsPsych-in-Qualtrics65/countingstroop/img/2incon1.png,49.0,incongruent,1,image-keyboard-response,66,136747,0.0-4.0-0.55,True,0,R_3iPFhdjhn83uXho
474,491.80000001192093,https://cdn.jsdelivr.net/gh/dvitaa/jsPsych-in-Qualtrics65/countingstroop/img/4con.png,52.0,congruent,4,image-keyboard-response,59,122385,0.0-4.0-0.48,True,0,R_3iPFhdjhn83uXho
475,478.5999999642372,https://cdn.jsdelivr.net/gh/dvitaa/jsPsych-in-Qualtrics65/countingstroop/img/2incon3.png,51.0,incongruent,3,image-keyboard-response,167,323057,0.0-4.0-0.156,True,0,R_3iPFhdjhn83uXho
