,rt,stimulus,key_press,stim_type,direction,trial_type,trial_index,time_elapsed,internal_node_id,correct,practice,ResponseId
0,425.80000001192093,https://cdn.jsdelivr.net/gh/dvitaa/jsPsych-in-QualtricsX1/flanker/img/con2.png,39.0,congruent,right,image-keyboard-response,58,110320,0.0-4.0-0.47,True,0,R_21Fe5Zie1owa6uc
1,494.79999999701977,https://cdn.jsdelivr.net/gh/dvitaa/jsPsych-in-QualtricsX1/flanker/img/inc2.png,37.0,incongruent,left,image-keyboard-response,37,75859,0.0-4.0-0.26,True,0,R_21Fe5Zie1owa6uc
2,371.5,https://cdn.jsdelivr.net/gh/dvitaa/jsPsych-in-QualtricsX1/flanker/img/con1.png,37.0,congruent,left,image-keyboard-response,38,77218,0.0-4.0-0.27,True,0,R_21Fe5Zie1owa6uc
3,378.79999999701977,https://cdn.jsdelivr.net/gh/dvitaa/jsPsych-in-QualtricsX1/flanker/img/con1.png,37.0,congruent,left,image-keyboard-response,39,79168,0.0-4.0-0.28,True,0,R_21Fe5Zie1owa6uc
4,374.0,https://cdn.jsdelivr.net/gh/dvitaa/jsPsych-in-QualtricsX1/flanker/img/con1.png,37.0,congruent,left,image-keyboard-response,40,81051,0.0-4.0-0.29,True,0,R_21Fe5Zie1owa6uc
5,373.29999999701977,https://cdn.jsdelivr.net/gh/dvitaa/jsPsych-in-QualtricsX1/flanker/img/con1.png,37.0,congruent,left,image-keyboard-response,41,82813,0.0-4.0-0.30,True,0,R_21Fe5Zie1owa6uc
6,377.70000000298023,https://cdn.jsdelivr.net/gh/dvitaa/jsPsych-in-QualtricsX1/flanker/img/con1.png,37.0,congruent,left,image-keyboard-response,42,84584,0.0-4.0-0.31,True,0,R_21Fe5Zie1owa6uc
7,406.40000000596046,https://cdn.jsdelivr.net/gh/dvitaa/jsPsych-in-QualtricsX1/flanker/img/inc1.png,39.0,incongruent,right,image-keyboard-response,43,85808,0.0-4.0-0.32,True,0,R_21Fe5Zie1owa6uc
8,474.29999999701977,https://cdn.jsdelivr.net/gh/dvitaa/jsPsych-in-QualtricsX1/flanker/img/con2.png,39.0,congruent,right,image-keyboard-response,44,88064,0.0-4.0-0.33,True,0,R_21Fe5Zie1owa6uc
9,596.1000000089407,https://cdn.jsdelivr.net/gh/dvitaa/jsPsych-in-QualtricsX1/flanker/img/inc1.png,39.0,incongruent,right,image-keyboard-response,45,89592,0.0-4.0-0.34,True,0,R_21Fe5Zie1owa6uc
10,603.4000000059605,https://cdn.jsdelivr.net/gh/dvitaa/jsPsych-in-QualtricsX1/flanker/img/con2.png,39.0,congruent,right,image-keyboard-response,36,73385,0.0-4.0-0.25,True,0,R_21Fe5Zie1owa6uc
11,452.40000000596046,https://cdn.jsdelivr.net/gh/dvitaa/jsPsych-in-QualtricsX1/flanker/img/inc2.png,37.0,incongruent,left,image-keyboard-response,46,91361,0.0-4.0-0.35,True,0,R_21Fe5Zie1owa6uc
12,504.09999999403954,https://cdn.jsdelivr.net/gh/dvitaa/jsPsych-in-QualtricsX1/flanker/img/con2.png,39.0,congruent,right,image-keyboard-response,48,94845,0.0-4.0-0.37,True,0,R_21Fe5Zie1owa6uc
13,448.09999999403954,https://cdn.jsdelivr.net/gh/dvitaa/jsPsych-in-QualtricsX1/flanker/img/inc2.png,37.0,incongruent,left,image-keyboard-response,49,95966,0.0-4.0-0.38,True,0,R_21Fe5Zie1owa6uc
14,435.29999999701977,https://cdn.jsdelivr.net/gh/dvitaa/jsPsych-in-QualtricsX1/flanker/img/con1.png,37.0,congruent,left,image-keyboard-response,50,97360,0.0-4.0-0.39,True,0,R_21Fe5Zie1owa6uc
15,504.0,https://cdn.jsdelivr.net/gh/dvitaa/jsPsych-in-QualtricsX1/flanker/img/inc1.png,39.0,incongruent,right,image-keyboard-response,51,98540,0.0-4.0-0.40,True,0,R_21Fe5Zie1owa6uc
16,520.7999999970198,https://cdn.jsdelivr.net/gh/dvitaa/jsPsych-in-QualtricsX1/flanker/img/inc1.png,39.0,incongruent,right,image-keyboard-response,52,100805,0.0-4.0-0.41,True,0,R_21Fe5Zie1owa6uc
17,453.40000000596046,https://cdn.jsdelivr.net/gh/dvitaa/jsPsych-in-QualtricsX1/flanker/img/inc2.png,37.0,incongruent,left,image-keyboard-response,53,102244,0.0-4.0-0.42,True,0,R_21Fe5Zie1owa6uc
18,504.80000001192093,https://cdn.jsdelivr.net/gh/dvitaa/jsPsych-in-QualtricsX1/flanker/img/inc2.png,37.0,incongruent,left,image-keyboard-response,54,103328,0.0-4.0-0.43,True,0,R_21Fe5Zie1owa6uc
19,465.80000001192093,https://cdn.jsdelivr.net/gh/dvitaa/jsPsych-in-QualtricsX1/flanker/img/inc1.png,39.0,incongruent,right,image-keyboard-response,55,105484,0.0-4.0-0.44,True,0,R_21Fe5Zie1owa6uc
20,514.7999999970198,https://cdn.jsdelivr.net/gh/dvitaa/jsPsych-in-QualtricsX1/flanker/img/inc2.png,37.0,incongruent,left,image-keyboard-response,56,106739,0.0-4.0-0.45,True,0,R_21Fe5Zie1owa6uc
21,560.9000000059605,https://cdn.jsdelivr.net/gh/dvitaa/jsPsych-in-QualtricsX1/flanker/img/inc1.png,39.0,incongruent,right,image-keyboard-response,47,93011,0.0-4.0-0.36,True,0,R_21Fe5Zie1owa6uc
22,420.8999999910593,https://cdn.jsdelivr.net/gh/dvitaa/jsPsych-in-QualtricsX1/flanker/img/con1.png,37.0,congruent,left,image-keyboard-response,57,109028,0.0-4.0-0.46,True,0,R_21Fe5Zie1owa6uc
23,471.70000000298023,https://cdn.jsdelivr.net/gh/dvitaa/jsPsych-in-QualtricsX1/flanker/img/con2.png,39.0,congruent,right,image-keyboard-response,35,71628,0.0-4.0-0.24,True,0,R_21Fe5Zie1owa6uc
24,366.5,https://cdn.jsdelivr.net/gh/dvitaa/jsPsych-in-QualtricsX1/flanker/img/con1.png,37.0,congruent,left,image-keyboard-response,33,67643,0.0-4.0-0.22,True,0,R_21Fe5Zie1owa6uc
25,616.8999999910593,https://cdn.jsdelivr.net/gh/dvitaa/jsPsych-in-QualtricsX1/flanker/img/inc1.png,39.0,incongruent,right,image-keyboard-response,13,38105,0.0-4.0-0.2,True,0,R_21Fe5Zie1owa6uc
26,443.70000000298023,https://cdn.jsdelivr.net/gh/dvitaa/jsPsych-in-QualtricsX1/flanker/img/inc1.png,39.0,incongruent,right,image-keyboard-response,14,39343,0.0-4.0-0.3,True,0,R_21Fe5Zie1owa6uc
27,678.2000000029802,https://cdn.jsdelivr.net/gh/dvitaa/jsPsych-in-QualtricsX1/flanker/img/con2.png,39.0,congruent,right,image-keyboard-response,15,40557,0.0-4.0-0.4,True,0,R_21Fe5Zie1owa6uc
28,468.20000000298023,https://cdn.jsdelivr.net/gh/dvitaa/jsPsych-in-QualtricsX1/flanker/img/inc2.png,37.0,incongruent,left,image-keyboard-response,16,41986,0.0-4.0-0.5,True,0,R_21Fe5Zie1owa6uc
29,493.20000000298023,https://cdn.jsdelivr.net/gh/dvitaa/jsPsych-in-QualtricsX1/flanker/img/con1.png,37.0,congruent,left,image-keyboard-response,17,43683,0.0-4.0-0.6,True,0,R_21Fe5Zie1owa6uc
30,423.29999999701977,https://cdn.jsdelivr.net/gh/dvitaa/jsPsych-in-QualtricsX1/flanker/img/con1.png,37.0,congruent,left,image-keyboard-response,18,45625,0.0-4.0-0.7,True,0,R_21Fe5Zie1owa6uc
31,378.70000000298023,https://cdn.jsdelivr.net/gh/dvitaa/jsPsych-in-QualtricsX1/flanker/img/con2.png,39.0,congruent,right,image-keyboard-response,19,46587,0.0-4.0-0.8,True,0,R_21Fe5Zie1owa6uc
32,467.20000000298023,https://cdn.jsdelivr.net/gh/dvitaa/jsPsych-in-QualtricsX1/flanker/img/con1.png,37.0,congruent,left,image-keyboard-response,20,47566,0.0-4.0-0.9,True,0,R_21Fe5Zie1owa6uc
33,435.70000000298023,https://cdn.jsdelivr.net/gh/dvitaa/jsPsych-in-QualtricsX1/flanker/img/con1.png,37.0,congruent,left,image-keyboard-response,21,49265,0.0-4.0-0.10,True,0,R_21Fe5Zie1owa6uc
34,475.3999999910593,https://cdn.jsdelivr.net/gh/dvitaa/jsPsych-in-QualtricsX1/flanker/img/con2.png,39.0,congruent,right,image-keyboard-response,34,69682,0.0-4.0-0.23,True,0,R_21Fe5Zie1owa6uc
35,389.40000000596046,https://cdn.jsdelivr.net/gh/dvitaa/jsPsych-in-QualtricsX1/flanker/img/con2.png,39.0,congruent,right,image-keyboard-response,22,50722,0.0-4.0-0.11,True,0,R_21Fe5Zie1owa6uc
36,528.2000000029802,https://cdn.jsdelivr.net/gh/dvitaa/jsPsych-in-QualtricsX1/flanker/img/inc2.png,37.0,incongruent,left,image-keyboard-response,24,54660,0.0-4.0-0.13,True,0,R_21Fe5Zie1owa6uc
37,508.09999999403954,https://cdn.jsdelivr.net/gh/dvitaa/jsPsych-in-QualtricsX1/flanker/img/inc1.png,39.0,incongruent,right,image-keyboard-response,25,55771,0.0-4.0-0.14,True,0,R_21Fe5Zie1owa6uc
38,515.7999999970198,https://cdn.jsdelivr.net/gh/dvitaa/jsPsych-in-QualtricsX1/flanker/img/con2.png,39.0,congruent,right,image-keyboard-response,26,56878,0.0-4.0-0.15,True,0,R_21Fe5Zie1owa6uc
39,392.09999999403954,https://cdn.jsdelivr.net/gh/dvitaa/jsPsych-in-QualtricsX1/flanker/img/con1.png,37.0,congruent,left,image-keyboard-response,27,58355,0.0-4.0-0.16,True,0,R_21Fe5Zie1owa6uc
40,381.59999999403954,https://cdn.jsdelivr.net/gh/dvitaa/jsPsych-in-QualtricsX1/flanker/img/con1.png,37.0,congruent,left,image-keyboard-response,28,59971,0.0-4.0-0.17,True,0,R_21Fe5Zie1owa6uc
41,489.3999999910593,https://cdn.jsdelivr.net/gh/dvitaa/jsPsych-in-QualtricsX1/flanker/img/inc2.png,37.0,incongruent,left,image-keyboard-response,29,61627,0.0-4.0-0.18,True,0,R_21Fe5Zie1owa6uc
42,368.59999999403954,https://cdn.jsdelivr.net/gh/dvitaa/jsPsych-in-QualtricsX1/flanker/img/con2.png,39.0,congruent,right,image-keyboard-response,30,63759,0.0-4.0-0.19,True,0,R_21Fe5Zie1owa6uc
43,429.79999999701977,https://cdn.jsdelivr.net/gh/dvitaa/jsPsych-in-QualtricsX1/flanker/img/inc2.png,37.0,incongruent,left,image-keyboard-response,31,65559,0.0-4.0-0.20,True,0,R_21Fe5Zie1owa6uc
44,557.0999999940395,https://cdn.jsdelivr.net/gh/dvitaa/jsPsych-in-QualtricsX1/flanker/img/con1.png,37.0,congruent,left,image-keyboard-response,32,66624,0.0-4.0-0.21,True,0,R_21Fe5Zie1owa6uc
45,451.40000000596046,https://cdn.jsdelivr.net/gh/dvitaa/jsPsych-in-QualtricsX1/flanker/img/con2.png,39.0,congruent,right,image-keyboard-response,23,52734,0.0-4.0-0.12,True,0,R_21Fe5Zie1owa6uc
46,401.70000000298023,https://cdn.jsdelivr.net/gh/dvitaa/jsPsych-in-QualtricsX1/flanker/img/con1.png,37.0,congruent,left,image-keyboard-response,59,112428,0.0-4.0-0.48,True,0,R_21Fe5Zie1owa6uc
47,554.7000000029802,https://cdn.jsdelivr.net/gh/dvitaa/jsPsych-in-QualtricsX1/flanker/img/inc2.png,37.0,incongruent,left,image-keyboard-response,60,114815,0.0-4.0-0.49,True,0,R_21Fe5Zie1owa6uc
48,569.6000000089407,https://cdn.jsdelivr.net/gh/dvitaa/jsPsych-in-QualtricsX1/flanker/img/inc1.png,39.0,incongruent,right,image-keyboard-response,61,116091,0.0-4.0-0.50,True,0,R_21Fe5Zie1owa6uc
49,474.69999998807907,https://cdn.jsdelivr.net/gh/dvitaa/jsPsych-in-QualtricsX1/flanker/img/con2.png,39.0,congruent,right,image-keyboard-response,87,163654,0.0-4.0-0.76,True,0,R_21Fe5Zie1owa6uc
50,492.79999999701977,https://cdn.jsdelivr.net/gh/dvitaa/jsPsych-in-QualtricsX1/flanker/img/inc1.png,39.0,incongruent,right,image-keyboard-response,88,165441,0.0-4.0-0.77,True,0,R_21Fe5Zie1owa6uc
51,454.70000000298023,https://cdn.jsdelivr.net/gh/dvitaa/jsPsych-in-QualtricsX1/flanker/img/con2.png,39.0,congruent,right,image-keyboard-response,89,167889,0.0-4.0-0.78,True,0,R_21Fe5Zie1owa6uc
52,581.1000000089407,https://cdn.jsdelivr.net/gh/dvitaa/jsPsych-in-QualtricsX1/flanker/img/con1.png,37.0,congruent,left,image-keyboard-response,90,169537,0.0-4.0-0.79,True,0,R_21Fe5Zie1owa6uc
53,545.2000000029802,https://cdn.jsdelivr.net/gh/dvitaa/jsPsych-in-QualtricsX1/flanker/img/con2.png,39.0,congruent,right,image-keyboard-response,91,172077,0.0-4.0-0.80,True,0,R_21Fe5Zie1owa6uc
54,489.40000000596046,https://cdn.jsdelivr.net/gh/dvitaa/jsPsych-in-QualtricsX1/flanker/img/inc2.png,37.0,incongruent,left,image-keyboard-response,92,173154,0.0-4.0-0.81,True,0,R_21Fe5Zie1owa6uc
55,664.0999999940395,https://cdn.jsdelivr.net/gh/dvitaa/jsPsych-in-QualtricsX1/flanker/img/inc2.png,37.0,incongruent,left,image-keyboard-response,93,175525,0.0-4.0-0.82,True,0,R_21Fe5Zie1owa6uc
56,609.1000000089407,https://cdn.jsdelivr.net/gh/dvitaa/jsPsych-in-QualtricsX1/flanker/img/con1.png,37.0,congruent,left,image-keyboard-response,94,177524,0.0-4.0-0.83,True,0,R_21Fe5Zie1owa6uc
57,542.5,https://cdn.jsdelivr.net/gh/dvitaa/jsPsych-in-QualtricsX1/flanker/img/inc1.png,39.0,incongruent,right,image-keyboard-response,95,179283,0.0-4.0-0.84,True,0,R_21Fe5Zie1owa6uc
58,535.3999999910593,https://cdn.jsdelivr.net/gh/dvitaa/jsPsych-in-QualtricsX1/flanker/img/inc2.png,37.0,incongruent,left,image-keyboard-response,86,161175,0.0-4.0-0.75,True,0,R_21Fe5Zie1owa6uc
59,478.0,https://cdn.jsdelivr.net/gh/dvitaa/jsPsych-in-QualtricsX1/flanker/img/con2.png,39.0,congruent,right,image-keyboard-response,96,180804,0.0-4.0-0.85,True,0,R_21Fe5Zie1owa6uc
60,518.4000000059605,https://cdn.jsdelivr.net/gh/dvitaa/jsPsych-in-QualtricsX1/flanker/img/inc2.png,37.0,incongruent,left,image-keyboard-response,98,184489,0.0-4.0-0.87,True,0,R_21Fe5Zie1owa6uc
61,521.2999999970198,https://cdn.jsdelivr.net/gh/dvitaa/jsPsych-in-QualtricsX1/flanker/img/inc1.png,39.0,incongruent,right,image-keyboard-response,99,186288,0.0-4.0-0.88,True,0,R_21Fe5Zie1owa6uc
62,501.6000000089407,https://cdn.jsdelivr.net/gh/dvitaa/jsPsych-in-QualtricsX1/flanker/img/inc1.png,39.0,incongruent,right,image-keyboard-response,100,187761,0.0-4.0-0.89,True,0,R_21Fe5Zie1owa6uc
63,535.2999999970198,https://cdn.jsdelivr.net/gh/dvitaa/jsPsych-in-QualtricsX1/flanker/img/inc1.png,39.0,incongruent,right,image-keyboard-response,101,189425,0.0-4.0-0.90,True,0,R_21Fe5Zie1owa6uc
64,505.20000000298023,https://cdn.jsdelivr.net/gh/dvitaa/jsPsych-in-QualtricsX1/flanker/img/inc1.png,39.0,incongruent,right,image-keyboard-response,102,190490,0.0-4.0-0.91,True,0,R_21Fe5Zie1owa6uc
65,487.5,https://cdn.jsdelivr.net/gh/dvitaa/jsPsych-in-QualtricsX1/flanker/img/con2.png,39.0,congruent,right,image-keyboard-response,103,192374,0.0-4.0-0.92,True,0,R_21Fe5Zie1owa6uc
66,431.0,https://cdn.jsdelivr.net/gh/dvitaa/jsPsych-in-QualtricsX1/flanker/img/con2.png,39.0,congruent,right,image-keyboard-response,104,194534,0.0-4.0-0.93,True,0,R_21Fe5Zie1owa6uc
67,467.30000001192093,https://cdn.jsdelivr.net/gh/dvitaa/jsPsych-in-QualtricsX1/flanker/img/inc2.png,37.0,incongruent,left,image-keyboard-response,105,196225,0.0-4.0-0.94,True,0,R_21Fe5Zie1owa6uc
68,420.79999999701977,https://cdn.jsdelivr.net/gh/dvitaa/jsPsych-in-QualtricsX1/flanker/img/con1.png,37.0,congruent,left,image-keyboard-response,106,197963,0.0-4.0-0.95,True,0,R_21Fe5Zie1owa6uc
69,477.29999999701977,https://cdn.jsdelivr.net/gh/dvitaa/jsPsych-in-QualtricsX1/flanker/img/con2.png,39.0,congruent,right,image-keyboard-response,97,182426,0.0-4.0-0.86,True,0,R_21Fe5Zie1owa6uc
70,595.7999999970198,https://cdn.jsdelivr.net/gh/dvitaa/jsPsych-in-QualtricsX1/flanker/img/inc2.png,37.0,incongruent,left,image-keyboard-response,85,159417,0.0-4.0-0.74,True,0,R_21Fe5Zie1owa6uc
71,487.29999999701977,https://cdn.jsdelivr.net/gh/dvitaa/jsPsych-in-QualtricsX1/flanker/img/con1.png,37.0,congruent,left,image-keyboard-response,84,157196,0.0-4.0-0.73,True,0,R_21Fe5Zie1owa6uc
72,474.09999999403954,https://cdn.jsdelivr.net/gh/dvitaa/jsPsych-in-QualtricsX1/flanker/img/inc2.png,37.0,incongruent,left,image-keyboard-response,83,155564,0.0-4.0-0.72,True,0,R_21Fe5Zie1owa6uc
73,488.6000000089407,https://cdn.jsdelivr.net/gh/dvitaa/jsPsych-in-QualtricsX1/flanker/img/inc1.png,39.0,incongruent,right,image-keyboard-response,62,118392,0.0-4.0-0.51,True,0,R_21Fe5Zie1owa6uc
74,423.5,https://cdn.jsdelivr.net/gh/dvitaa/jsPsych-in-QualtricsX1/flanker/img/con1.png,37.0,congruent,left,image-keyboard-response,63,119688,0.0-4.0-0.52,True,0,R_21Fe5Zie1owa6uc
75,381.1000000089407,https://cdn.jsdelivr.net/gh/dvitaa/jsPsych-in-QualtricsX1/flanker/img/con2.png,39.0,congruent,right,image-keyboard-response,64,121045,0.0-4.0-0.53,True,0,R_21Fe5Zie1owa6uc
76,414.20000000298023,https://cdn.jsdelivr.net/gh/dvitaa/jsPsych-in-QualtricsX1/flanker/img/inc2.png,37.0,incongruent,left,image-keyboard-response,65,122362,0.0-4.0-0.54,True,0,R_21Fe5Zie1owa6uc
77,440.8999999910593,https://cdn.jsdelivr.net/gh/dvitaa/jsPsych-in-QualtricsX1/flanker/img/inc1.png,39.0,incongruent,right,image-keyboard-response,66,124647,0.0-4.0-0.55,True,0,R_21Fe5Zie1owa6uc
78,465.70000000298023,https://cdn.jsdelivr.net/gh/dvitaa/jsPsych-in-QualtricsX1/flanker/img/inc2.png,37.0,incongruent,left,image-keyboard-response,67,127002,0.0-4.0-0.56,True,0,R_21Fe5Zie1owa6uc
79,455.5,https://cdn.jsdelivr.net/gh/dvitaa/jsPsych-in-QualtricsX1/flanker/img/inc1.png,39.0,incongruent,right,image-keyboard-response,68,128360,0.0-4.0-0.57,True,0,R_21Fe5Zie1owa6uc
80,510.3999999910593,https://cdn.jsdelivr.net/gh/dvitaa/jsPsych-in-QualtricsX1/flanker/img/con2.png,39.0,congruent,right,image-keyboard-response,69,130801,0.0-4.0-0.58,True,0,R_21Fe5Zie1owa6uc
81,499.20000000298023,https://cdn.jsdelivr.net/gh/dvitaa/jsPsych-in-QualtricsX1/flanker/img/inc2.png,37.0,incongruent,left,image-keyboard-response,70,132416,0.0-4.0-0.59,True,0,R_21Fe5Zie1owa6uc
82,500.59999999403954,https://cdn.jsdelivr.net/gh/dvitaa/jsPsych-in-QualtricsX1/flanker/img/inc2.png,37.0,incongruent,left,image-keyboard-response,71,134915,0.0-4.0-0.60,True,0,R_21Fe5Zie1owa6uc
83,429.29999999701977,https://cdn.jsdelivr.net/gh/dvitaa/jsPsych-in-QualtricsX1/flanker/img/con2.png,39.0,congruent,right,image-keyboard-response,72,136380,0.0-4.0-0.61,True,0,R_21Fe5Zie1owa6uc
84,506.20000000298023,https://cdn.jsdelivr.net/gh/dvitaa/jsPsych-in-QualtricsX1/flanker/img/inc1.png,39.0,incongruent,right,image-keyboard-response,73,138463,0.0-4.0-0.62,True,0,R_21Fe5Zie1owa6uc
85,520.8000000119209,https://cdn.jsdelivr.net/gh/dvitaa/jsPsych-in-QualtricsX1/flanker/img/inc1.png,39.0,incongruent,right,image-keyboard-response,74,140572,0.0-4.0-0.63,True,0,R_21Fe5Zie1owa6uc
86,485.20000000298023,https://cdn.jsdelivr.net/gh/dvitaa/jsPsych-in-QualtricsX1/flanker/img/inc1.png,39.0,incongruent,right,image-keyboard-response,75,141748,0.0-4.0-0.64,True,0,R_21Fe5Zie1owa6uc
87,632.2999999970198,https://cdn.jsdelivr.net/gh/dvitaa/jsPsych-in-QualtricsX1/flanker/img/con1.png,37.0,congruent,left,image-keyboard-response,76,143987,0.0-4.0-0.65,True,0,R_21Fe5Zie1owa6uc
88,489.79999999701977,https://cdn.jsdelivr.net/gh/dvitaa/jsPsych-in-QualtricsX1/flanker/img/inc2.png,37.0,incongruent,left,image-keyboard-response,77,146085,0.0-4.0-0.66,True,0,R_21Fe5Zie1owa6uc
89,384.70000000298023,https://cdn.jsdelivr.net/gh/dvitaa/jsPsych-in-QualtricsX1/flanker/img/con2.png,39.0,congruent,right,image-keyboard-response,78,148012,0.0-4.0-0.67,True,0,R_21Fe5Zie1owa6uc
90,508.20000000298023,https://cdn.jsdelivr.net/gh/dvitaa/jsPsych-in-QualtricsX1/flanker/img/inc2.png,37.0,incongruent,left,image-keyboard-response,79,149581,0.0-4.0-0.68,True,0,R_21Fe5Zie1owa6uc
91,436.40000000596046,https://cdn.jsdelivr.net/gh/dvitaa/jsPsych-in-QualtricsX1/flanker/img/con2.png,39.0,congruent,right,image-keyboard-response,80,151359,0.0-4.0-0.69,True,0,R_21Fe5Zie1owa6uc
92,507.79999999701977,https://cdn.jsdelivr.net/gh/dvitaa/jsPsych-in-QualtricsX1/flanker/img/inc1.png,39.0,incongruent,right,image-keyboard-response,81,153131,0.0-4.0-0.70,True,0,R_21Fe5Zie1owa6uc
93,476.09999999403954,https://cdn.jsdelivr.net/gh/dvitaa/jsPsych-in-QualtricsX1/flanker/img/inc1.png,39.0,incongruent,right,image-keyboard-response,82,154421,0.0-4.0-0.71,True,0,R_21Fe5Zie1owa6uc
94,421.19999998807907,https://cdn.jsdelivr.net/gh/dvitaa/jsPsych-in-QualtricsX1/flanker/img/con1.png,37.0,congruent,left,image-keyboard-response,12,35994,0.0-4.0-0.1,True,0,R_21Fe5Zie1owa6uc
95,502.5,https://cdn.jsdelivr.net/gh/dvitaa/jsPsych-in-QualtricsX1/flanker/img/con1.png,37.0,congruent,left,image-keyboard-response,11,34182,0.0-4.0-0.0,True,0,R_21Fe5Zie1owa6uc
96,798.0,https://cdn.jsdelivr.net/gh/dvitaa/jsPsych-in-QualtricsX1/flanker/img/con1.png,37.0,congruent,left,image-keyboard-response,11,41497,0.0-4.0-0.0,True,0,R_3CZZ2kfZiHqB8kL
97,902.0,https://cdn.jsdelivr.net/gh/dvitaa/jsPsych-in-QualtricsX1/flanker/img/inc2.png,37.0,incongruent,left,image-keyboard-response,105,226734,0.0-4.0-0.94,True,0,R_3CZZ2kfZiHqB8kL
98,833.0000000002328,https://cdn.jsdelivr.net/gh/dvitaa/jsPsych-in-QualtricsX1/flanker/img/con2.png,39.0,congruent,right,image-keyboard-response,37,94612,0.0-4.0-0.26,True,0,R_3CZZ2kfZiHqB8kL
99,973.0,https://cdn.jsdelivr.net/gh/dvitaa/jsPsych-in-QualtricsX1/flanker/img/inc1.png,39.0,incongruent,right,image-keyboard-response,38,96494,0.0-4.0-0.27,True,0,R_3CZZ2kfZiHqB8kL
100,657.0,https://cdn.jsdelivr.net/gh/dvitaa/jsPsych-in-QualtricsX1/flanker/img/con1.png,37.0,congruent,left,image-keyboard-response,39,97771,0.0-4.0-0.28,True,0,R_3CZZ2kfZiHqB8kL
101,545.0,https://cdn.jsdelivr.net/gh/dvitaa/jsPsych-in-QualtricsX1/flanker/img/con1.png,37.0,congruent,left,image-keyboard-response,40,98883,0.0-4.0-0.29,True,0,R_3CZZ2kfZiHqB8kL
102,822.0000000002328,https://cdn.jsdelivr.net/gh/dvitaa/jsPsych-in-QualtricsX1/flanker/img/con2.png,39.0,congruent,right,image-keyboard-response,41,101266,0.0-4.0-0.30,True,0,R_3CZZ2kfZiHqB8kL
103,728.0,https://cdn.jsdelivr.net/gh/dvitaa/jsPsych-in-QualtricsX1/flanker/img/con1.png,37.0,congruent,left,image-keyboard-response,42,103397,0.0-4.0-0.31,True,0,R_3CZZ2kfZiHqB8kL
104,947.0,https://cdn.jsdelivr.net/gh/dvitaa/jsPsych-in-QualtricsX1/flanker/img/inc1.png,39.0,incongruent,right,image-keyboard-response,43,106341,0.0-4.0-0.32,True,0,R_3CZZ2kfZiHqB8kL
105,702.9999999997672,https://cdn.jsdelivr.net/gh/dvitaa/jsPsych-in-QualtricsX1/flanker/img/con1.png,37.0,congruent,left,image-keyboard-response,44,107853,0.0-4.0-0.33,True,0,R_3CZZ2kfZiHqB8kL
106,836.0,https://cdn.jsdelivr.net/gh/dvitaa/jsPsych-in-QualtricsX1/flanker/img/inc1.png,39.0,incongruent,right,image-keyboard-response,45,109706,0.0-4.0-0.34,True,0,R_3CZZ2kfZiHqB8kL
107,745.0,https://cdn.jsdelivr.net/gh/dvitaa/jsPsych-in-QualtricsX1/flanker/img/inc2.png,37.0,incongruent,left,image-keyboard-response,35,90451,0.0-4.0-0.24,True,0,R_3CZZ2kfZiHqB8kL
108,759.0,https://cdn.jsdelivr.net/gh/dvitaa/jsPsych-in-QualtricsX1/flanker/img/inc1.png,39.0,incongruent,right,image-keyboard-response,46,111174,0.0-4.0-0.35,True,0,R_3CZZ2kfZiHqB8kL
109,756.0,https://cdn.jsdelivr.net/gh/dvitaa/jsPsych-in-QualtricsX1/flanker/img/inc1.png,39.0,incongruent,right,image-keyboard-response,48,115930,0.0-4.0-0.37,True,0,R_3CZZ2kfZiHqB8kL
110,795.0,https://cdn.jsdelivr.net/gh/dvitaa/jsPsych-in-QualtricsX1/flanker/img/inc1.png,39.0,incongruent,right,image-keyboard-response,49,117468,0.0-4.0-0.38,True,0,R_3CZZ2kfZiHqB8kL
111,709.0,https://cdn.jsdelivr.net/gh/dvitaa/jsPsych-in-QualtricsX1/flanker/img/inc1.png,39.0,incongruent,right,image-keyboard-response,50,119290,0.0-4.0-0.39,True,0,R_3CZZ2kfZiHqB8kL
112,889.0,https://cdn.jsdelivr.net/gh/dvitaa/jsPsych-in-QualtricsX1/flanker/img/inc1.png,39.0,incongruent,right,image-keyboard-response,51,120726,0.0-4.0-0.40,True,0,R_3CZZ2kfZiHqB8kL
113,675.0,https://cdn.jsdelivr.net/gh/dvitaa/jsPsych-in-QualtricsX1/flanker/img/con2.png,39.0,congruent,right,image-keyboard-response,52,123224,0.0-4.0-0.41,True,0,R_3CZZ2kfZiHqB8kL
114,684.0,https://cdn.jsdelivr.net/gh/dvitaa/jsPsych-in-QualtricsX1/flanker/img/inc2.png,37.0,incongruent,left,image-keyboard-response,53,125621,0.0-4.0-0.42,True,0,R_3CZZ2kfZiHqB8kL
115,691.0,https://cdn.jsdelivr.net/gh/dvitaa/jsPsych-in-QualtricsX1/flanker/img/con2.png,39.0,congruent,right,image-keyboard-response,54,128263,0.0-4.0-0.43,True,0,R_3CZZ2kfZiHqB8kL
116,760.0,https://cdn.jsdelivr.net/gh/dvitaa/jsPsych-in-QualtricsX1/flanker/img/inc1.png,39.0,incongruent,right,image-keyboard-response,55,129782,0.0-4.0-0.44,True,0,R_3CZZ2kfZiHqB8kL
117,655.0,https://cdn.jsdelivr.net/gh/dvitaa/jsPsych-in-QualtricsX1/flanker/img/con2.png,39.0,congruent,right,image-keyboard-response,56,131993,0.0-4.0-0.45,True,0,R_3CZZ2kfZiHqB8kL
118,908.0,https://cdn.jsdelivr.net/gh/dvitaa/jsPsych-in-QualtricsX1/flanker/img/inc1.png,39.0,incongruent,right,image-keyboard-response,47,113644,0.0-4.0-0.36,True,0,R_3CZZ2kfZiHqB8kL
119,552.0,https://cdn.jsdelivr.net/gh/dvitaa/jsPsych-in-QualtricsX1/flanker/img/con1.png,37.0,congruent,left,image-keyboard-response,34,88989,0.0-4.0-0.23,True,0,R_3CZZ2kfZiHqB8kL
120,697.0,https://cdn.jsdelivr.net/gh/dvitaa/jsPsych-in-QualtricsX1/flanker/img/con2.png,39.0,congruent,right,image-keyboard-response,33,87021,0.0-4.0-0.22,True,0,R_3CZZ2kfZiHqB8kL
121,524.0000000002328,https://cdn.jsdelivr.net/gh/dvitaa/jsPsych-in-QualtricsX1/flanker/img/con1.png,37.0,congruent,left,image-keyboard-response,32,85005,0.0-4.0-0.21,True,0,R_3CZZ2kfZiHqB8kL
122,885.0,https://cdn.jsdelivr.net/gh/dvitaa/jsPsych-in-QualtricsX1/flanker/img/inc1.png,39.0,incongruent,right,image-keyboard-response,106,228299,0.0-4.0-0.95,True,0,R_3CZZ2kfZiHqB8kL
123,756.0,https://cdn.jsdelivr.net/gh/dvitaa/jsPsych-in-QualtricsX1/flanker/img/inc2.png,37.0,incongruent,left,image-keyboard-response,12,43490,0.0-4.0-0.1,True,0,R_3CZZ2kfZiHqB8kL
124,650.0,https://cdn.jsdelivr.net/gh/dvitaa/jsPsych-in-QualtricsX1/flanker/img/con2.png,37.0,congruent,right,image-keyboard-response,13,45612,0.0-4.0-0.2,False,0,R_3CZZ2kfZiHqB8kL
125,685.0,https://cdn.jsdelivr.net/gh/dvitaa/jsPsych-in-QualtricsX1/flanker/img/inc2.png,37.0,incongruent,left,image-keyboard-response,14,47679,0.0-4.0-0.3,True,0,R_3CZZ2kfZiHqB8kL
126,868.0,https://cdn.jsdelivr.net/gh/dvitaa/jsPsych-in-QualtricsX1/flanker/img/inc2.png,37.0,incongruent,left,image-keyboard-response,15,49268,0.0-4.0-0.4,True,0,R_3CZZ2kfZiHqB8kL
127,935.0000000002328,https://cdn.jsdelivr.net/gh/dvitaa/jsPsych-in-QualtricsX1/flanker/img/inc1.png,39.0,incongruent,right,image-keyboard-response,16,50919,0.0-4.0-0.5,True,0,R_3CZZ2kfZiHqB8kL
128,1164.0,https://cdn.jsdelivr.net/gh/dvitaa/jsPsych-in-QualtricsX1/flanker/img/con2.png,39.0,congruent,right,image-keyboard-response,17,53378,0.0-4.0-0.6,True,0,R_3CZZ2kfZiHqB8kL
129,1091.0,https://cdn.jsdelivr.net/gh/dvitaa/jsPsych-in-QualtricsX1/flanker/img/inc1.png,39.0,incongruent,right,image-keyboard-response,18,55781,0.0-4.0-0.7,True,0,R_3CZZ2kfZiHqB8kL
130,870.0,https://cdn.jsdelivr.net/gh/dvitaa/jsPsych-in-QualtricsX1/flanker/img/con1.png,37.0,congruent,left,image-keyboard-response,19,58504,0.0-4.0-0.8,True,0,R_3CZZ2kfZiHqB8kL
131,859.0000000002328,https://cdn.jsdelivr.net/gh/dvitaa/jsPsych-in-QualtricsX1/flanker/img/inc2.png,37.0,incongruent,left,image-keyboard-response,20,61063,0.0-4.0-0.9,True,0,R_3CZZ2kfZiHqB8kL
132,581.0,https://cdn.jsdelivr.net/gh/dvitaa/jsPsych-in-QualtricsX1/flanker/img/con1.png,37.0,congruent,left,image-keyboard-response,21,62550,0.0-4.0-0.10,True,0,R_3CZZ2kfZiHqB8kL
133,660.0,https://cdn.jsdelivr.net/gh/dvitaa/jsPsych-in-QualtricsX1/flanker/img/con2.png,39.0,congruent,right,image-keyboard-response,22,64344,0.0-4.0-0.11,True,0,R_3CZZ2kfZiHqB8kL
134,636.9999999997672,https://cdn.jsdelivr.net/gh/dvitaa/jsPsych-in-QualtricsX1/flanker/img/con2.png,39.0,congruent,right,image-keyboard-response,23,66046,0.0-4.0-0.12,True,0,R_3CZZ2kfZiHqB8kL
135,638.0,https://cdn.jsdelivr.net/gh/dvitaa/jsPsych-in-QualtricsX1/flanker/img/con1.png,37.0,congruent,left,image-keyboard-response,24,68331,0.0-4.0-0.13,True,0,R_3CZZ2kfZiHqB8kL
136,,https://cdn.jsdelivr.net/gh/dvitaa/jsPsych-in-QualtricsX1/flanker/img/inc1.png,,incongruent,right,image-keyboard-response,25,70660,0.0-4.0-0.14,False,0,R_3CZZ2kfZiHqB8kL
137,860.9999999997672,https://cdn.jsdelivr.net/gh/dvitaa/jsPsych-in-QualtricsX1/flanker/img/con2.png,39.0,congruent,right,image-keyboard-response,26,73155,0.0-4.0-0.15,True,0,R_3CZZ2kfZiHqB8kL
138,884.0000000002328,https://cdn.jsdelivr.net/gh/dvitaa/jsPsych-in-QualtricsX1/flanker/img/con2.png,39.0,congruent,right,image-keyboard-response,27,75015,0.0-4.0-0.16,True,0,R_3CZZ2kfZiHqB8kL
139,1162.0,https://cdn.jsdelivr.net/gh/dvitaa/jsPsych-in-QualtricsX1/flanker/img/inc2.png,37.0,incongruent,left,image-keyboard-response,28,77613,0.0-4.0-0.17,True,0,R_3CZZ2kfZiHqB8kL
140,823.0,https://cdn.jsdelivr.net/gh/dvitaa/jsPsych-in-QualtricsX1/flanker/img/con2.png,39.0,congruent,right,image-keyboard-response,29,79872,0.0-4.0-0.18,True,0,R_3CZZ2kfZiHqB8kL
141,602.0,https://cdn.jsdelivr.net/gh/dvitaa/jsPsych-in-QualtricsX1/flanker/img/inc2.png,37.0,incongruent,left,image-keyboard-response,30,82370,0.0-4.0-0.19,True,0,R_3CZZ2kfZiHqB8kL
142,749.0,https://cdn.jsdelivr.net/gh/dvitaa/jsPsych-in-QualtricsX1/flanker/img/con2.png,39.0,congruent,right,image-keyboard-response,31,83701,0.0-4.0-0.20,True,0,R_3CZZ2kfZiHqB8kL
143,754.0,https://cdn.jsdelivr.net/gh/dvitaa/jsPsych-in-QualtricsX1/flanker/img/inc2.png,37.0,incongruent,left,image-keyboard-response,57,133685,0.0-4.0-0.46,True,0,R_3CZZ2kfZiHqB8kL
144,543.0,https://cdn.jsdelivr.net/gh/dvitaa/jsPsych-in-QualtricsX1/flanker/img/inc2.png,37.0,incongruent,left,image-keyboard-response,58,134880,0.0-4.0-0.47,True,0,R_3CZZ2kfZiHqB8kL
145,1047.0,https://cdn.jsdelivr.net/gh/dvitaa/jsPsych-in-QualtricsX1/flanker/img/inc1.png,39.0,incongruent,right,image-keyboard-response,36,93011,0.0-4.0-0.25,True,0,R_3CZZ2kfZiHqB8kL
146,565.0,https://cdn.jsdelivr.net/gh/dvitaa/jsPsych-in-QualtricsX1/flanker/img/con1.png,37.0,congruent,left,image-keyboard-response,104,224029,0.0-4.0-0.93,True,0,R_3CZZ2kfZiHqB8kL
147,758.0,https://cdn.jsdelivr.net/gh/dvitaa/jsPsych-in-QualtricsX1/flanker/img/inc1.png,39.0,incongruent,right,image-keyboard-response,84,184388,0.0-4.0-0.73,True,0,R_3CZZ2kfZiHqB8kL
148,759.0,https://cdn.jsdelivr.net/gh/dvitaa/jsPsych-in-QualtricsX1/flanker/img/con2.png,39.0,congruent,right,image-keyboard-response,85,186754,0.0-4.0-0.74,True,0,R_3CZZ2kfZiHqB8kL
149,688.0,https://cdn.jsdelivr.net/gh/dvitaa/jsPsych-in-QualtricsX1/flanker/img/con2.png,39.0,congruent,right,image-keyboard-response,86,188665,0.0-4.0-0.75,True,0,R_3CZZ2kfZiHqB8kL
150,780.0,https://cdn.jsdelivr.net/gh/dvitaa/jsPsych-in-QualtricsX1/flanker/img/inc1.png,39.0,incongruent,right,image-keyboard-response,87,190737,0.0-4.0-0.76,True,0,R_3CZZ2kfZiHqB8kL
151,716.0000000002328,https://cdn.jsdelivr.net/gh/dvitaa/jsPsych-in-QualtricsX1/flanker/img/con2.png,39.0,congruent,right,image-keyboard-response,88,192798,0.0-4.0-0.77,True,0,R_3CZZ2kfZiHqB8kL
152,722.0,https://cdn.jsdelivr.net/gh/dvitaa/jsPsych-in-QualtricsX1/flanker/img/inc2.png,37.0,incongruent,left,image-keyboard-response,89,195224,0.0-4.0-0.78,True,0,R_3CZZ2kfZiHqB8kL
153,611.0,https://cdn.jsdelivr.net/gh/dvitaa/jsPsych-in-QualtricsX1/flanker/img/inc2.png,37.0,incongruent,left,image-keyboard-response,90,197022,0.0-4.0-0.79,True,0,R_3CZZ2kfZiHqB8kL
154,580.0,https://cdn.jsdelivr.net/gh/dvitaa/jsPsych-in-QualtricsX1/flanker/img/con1.png,37.0,congruent,left,image-keyboard-response,92,201254,0.0-4.0-0.81,True,0,R_3CZZ2kfZiHqB8kL
155,903.0,https://cdn.jsdelivr.net/gh/dvitaa/jsPsych-in-QualtricsX1/flanker/img/inc1.png,39.0,incongruent,right,image-keyboard-response,93,203753,0.0-4.0-0.82,True,0,R_3CZZ2kfZiHqB8kL
156,659.0,https://cdn.jsdelivr.net/gh/dvitaa/jsPsych-in-QualtricsX1/flanker/img/con2.png,39.0,congruent,right,image-keyboard-response,83,181741,0.0-4.0-0.72,True,0,R_3CZZ2kfZiHqB8kL
157,769.0,https://cdn.jsdelivr.net/gh/dvitaa/jsPsych-in-QualtricsX1/flanker/img/inc1.png,39.0,incongruent,right,image-keyboard-response,94,206421,0.0-4.0-0.83,True,0,R_3CZZ2kfZiHqB8kL
158,741.0,https://cdn.jsdelivr.net/gh/dvitaa/jsPsych-in-QualtricsX1/flanker/img/con2.png,39.0,congruent,right,image-keyboard-response,96,209699,0.0-4.0-0.85,True,0,R_3CZZ2kfZiHqB8kL
159,783.0000000002328,https://cdn.jsdelivr.net/gh/dvitaa/jsPsych-in-QualtricsX1/flanker/img/inc1.png,39.0,incongruent,right,image-keyboard-response,97,211076,0.0-4.0-0.86,True,0,R_3CZZ2kfZiHqB8kL
160,619.0,https://cdn.jsdelivr.net/gh/dvitaa/jsPsych-in-QualtricsX1/flanker/img/con1.png,37.0,congruent,left,image-keyboard-response,98,212578,0.0-4.0-0.87,True,0,R_3CZZ2kfZiHqB8kL
161,426.99999999976717,https://cdn.jsdelivr.net/gh/dvitaa/jsPsych-in-QualtricsX1/flanker/img/con1.png,37.0,congruent,left,image-keyboard-response,99,214763,0.0-4.0-0.88,True,0,R_3CZZ2kfZiHqB8kL
162,608.0,https://cdn.jsdelivr.net/gh/dvitaa/jsPsych-in-QualtricsX1/flanker/img/inc2.png,37.0,incongruent,left,image-keyboard-response,100,216678,0.0-4.0-0.89,True,0,R_3CZZ2kfZiHqB8kL
163,594.0,https://cdn.jsdelivr.net/gh/dvitaa/jsPsych-in-QualtricsX1/flanker/img/inc2.png,37.0,incongruent,left,image-keyboard-response,101,218080,0.0-4.0-0.90,True,0,R_3CZZ2kfZiHqB8kL
164,517.0,https://cdn.jsdelivr.net/gh/dvitaa/jsPsych-in-QualtricsX1/flanker/img/inc2.png,37.0,incongruent,left,image-keyboard-response,102,220224,0.0-4.0-0.91,True,0,R_3CZZ2kfZiHqB8kL
165,713.0,https://cdn.jsdelivr.net/gh/dvitaa/jsPsych-in-QualtricsX1/flanker/img/inc2.png,37.0,incongruent,left,image-keyboard-response,103,221627,0.0-4.0-0.92,True,0,R_3CZZ2kfZiHqB8kL
166,803.0,https://cdn.jsdelivr.net/gh/dvitaa/jsPsych-in-QualtricsX1/flanker/img/con2.png,39.0,congruent,right,image-keyboard-response,59,136482,0.0-4.0-0.48,True,0,R_3CZZ2kfZiHqB8kL
167,652.0,https://cdn.jsdelivr.net/gh/dvitaa/jsPsych-in-QualtricsX1/flanker/img/inc2.png,37.0,incongruent,left,image-keyboard-response,95,207954,0.0-4.0-0.84,True,0,R_3CZZ2kfZiHqB8kL
168,735.9999999997672,https://cdn.jsdelivr.net/gh/dvitaa/jsPsych-in-QualtricsX1/flanker/img/con2.png,39.0,congruent,right,image-keyboard-response,82,180446,0.0-4.0-0.71,True,0,R_3CZZ2kfZiHqB8kL
169,829.0,https://cdn.jsdelivr.net/gh/dvitaa/jsPsych-in-QualtricsX1/flanker/img/inc1.png,39.0,incongruent,right,image-keyboard-response,91,199781,0.0-4.0-0.80,True,0,R_3CZZ2kfZiHqB8kL
170,675.0,https://cdn.jsdelivr.net/gh/dvitaa/jsPsych-in-QualtricsX1/flanker/img/inc2.png,37.0,incongruent,left,image-keyboard-response,80,176609,0.0-4.0-0.69,True,0,R_3CZZ2kfZiHqB8kL
171,574.9999999997672,https://cdn.jsdelivr.net/gh/dvitaa/jsPsych-in-QualtricsX1/flanker/img/con1.png,37.0,congruent,left,image-keyboard-response,60,137967,0.0-4.0-0.49,True,0,R_3CZZ2kfZiHqB8kL
172,494.0,https://cdn.jsdelivr.net/gh/dvitaa/jsPsych-in-QualtricsX1/flanker/img/con1.png,37.0,congruent,left,image-keyboard-response,81,177745,0.0-4.0-0.70,True,0,R_3CZZ2kfZiHqB8kL
173,548.0,https://cdn.jsdelivr.net/gh/dvitaa/jsPsych-in-QualtricsX1/flanker/img/inc2.png,37.0,incongruent,left,image-keyboard-response,62,141799,0.0-4.0-0.51,True,0,R_3CZZ2kfZiHqB8kL
174,798.0,https://cdn.jsdelivr.net/gh/dvitaa/jsPsych-in-QualtricsX1/flanker/img/con2.png,39.0,congruent,right,image-keyboard-response,63,144434,0.0-4.0-0.52,True,0,R_3CZZ2kfZiHqB8kL
175,765.0,https://cdn.jsdelivr.net/gh/dvitaa/jsPsych-in-QualtricsX1/flanker/img/inc1.png,39.0,incongruent,right,image-keyboard-response,64,145864,0.0-4.0-0.53,True,0,R_3CZZ2kfZiHqB8kL
176,582.0,https://cdn.jsdelivr.net/gh/dvitaa/jsPsych-in-QualtricsX1/flanker/img/con1.png,37.0,congruent,left,image-keyboard-response,65,148217,0.0-4.0-0.54,True,0,R_3CZZ2kfZiHqB8kL
177,1327.0,https://cdn.jsdelivr.net/gh/dvitaa/jsPsych-in-QualtricsX1/flanker/img/inc1.png,39.0,incongruent,right,image-keyboard-response,66,150386,0.0-4.0-0.55,True,0,R_3CZZ2kfZiHqB8kL
178,690.0,https://cdn.jsdelivr.net/gh/dvitaa/jsPsych-in-QualtricsX1/flanker/img/con1.png,37.0,congruent,left,image-keyboard-response,67,152783,0.0-4.0-0.56,True,0,R_3CZZ2kfZiHqB8kL
179,578.0,https://cdn.jsdelivr.net/gh/dvitaa/jsPsych-in-QualtricsX1/flanker/img/con1.png,37.0,congruent,left,image-keyboard-response,68,154792,0.0-4.0-0.57,True,0,R_3CZZ2kfZiHqB8kL
180,500.0,https://cdn.jsdelivr.net/gh/dvitaa/jsPsych-in-QualtricsX1/flanker/img/con1.png,37.0,congruent,left,image-keyboard-response,69,156662,0.0-4.0-0.58,True,0,R_3CZZ2kfZiHqB8kL
181,442.0,https://cdn.jsdelivr.net/gh/dvitaa/jsPsych-in-QualtricsX1/flanker/img/con1.png,37.0,congruent,left,image-keyboard-response,70,158154,0.0-4.0-0.59,True,0,R_3CZZ2kfZiHqB8kL
182,613.0,https://cdn.jsdelivr.net/gh/dvitaa/jsPsych-in-QualtricsX1/flanker/img/inc2.png,37.0,incongruent,left,image-keyboard-response,61,140317,0.0-4.0-0.50,True,0,R_3CZZ2kfZiHqB8kL
183,875.0,https://cdn.jsdelivr.net/gh/dvitaa/jsPsych-in-QualtricsX1/flanker/img/inc1.png,39.0,incongruent,right,image-keyboard-response,72,162773,0.0-4.0-0.61,True,0,R_3CZZ2kfZiHqB8kL
184,581.0,https://cdn.jsdelivr.net/gh/dvitaa/jsPsych-in-QualtricsX1/flanker/img/inc2.png,37.0,incongruent,left,image-keyboard-response,73,164495,0.0-4.0-0.62,True,0,R_3CZZ2kfZiHqB8kL
185,536.9999999997672,https://cdn.jsdelivr.net/gh/dvitaa/jsPsych-in-QualtricsX1/flanker/img/con1.png,37.0,congruent,left,image-keyboard-response,74,165573,0.0-4.0-0.63,True,0,R_3CZZ2kfZiHqB8kL
186,485.0,https://cdn.jsdelivr.net/gh/dvitaa/jsPsych-in-QualtricsX1/flanker/img/con1.png,37.0,congruent,left,image-keyboard-response,75,167153,0.0-4.0-0.64,True,0,R_3CZZ2kfZiHqB8kL
187,842.0,https://cdn.jsdelivr.net/gh/dvitaa/jsPsych-in-QualtricsX1/flanker/img/con2.png,39.0,congruent,right,image-keyboard-response,76,168579,0.0-4.0-0.65,True,0,R_3CZZ2kfZiHqB8kL
188,749.0,https://cdn.jsdelivr.net/gh/dvitaa/jsPsych-in-QualtricsX1/flanker/img/inc2.png,37.0,incongruent,left,image-keyboard-response,77,170762,0.0-4.0-0.66,True,0,R_3CZZ2kfZiHqB8kL
189,620.0,https://cdn.jsdelivr.net/gh/dvitaa/jsPsych-in-QualtricsX1/flanker/img/con1.png,37.0,congruent,left,image-keyboard-response,78,172002,0.0-4.0-0.67,True,0,R_3CZZ2kfZiHqB8kL
190,639.0,https://cdn.jsdelivr.net/gh/dvitaa/jsPsych-in-QualtricsX1/flanker/img/con2.png,39.0,congruent,right,image-keyboard-response,79,174480,0.0-4.0-0.68,True,0,R_3CZZ2kfZiHqB8kL
191,793.0,https://cdn.jsdelivr.net/gh/dvitaa/jsPsych-in-QualtricsX1/flanker/img/inc2.png,37.0,incongruent,left,image-keyboard-response,71,160549,0.0-4.0-0.60,True,0,R_3CZZ2kfZiHqB8kL
192,466.4000000357628,https://cdn.jsdelivr.net/gh/dvitaa/jsPsych-in-QualtricsX1/flanker/img/inc2.png,37.0,incongruent,left,image-keyboard-response,72,127918,0.0-4.0-0.61,True,0,R_3iPFhdjhn83uXho
193,486.89999997615814,https://cdn.jsdelivr.net/gh/dvitaa/jsPsych-in-QualtricsX1/flanker/img/con2.png,39.0,congruent,right,image-keyboard-response,73,129767,0.0-4.0-0.62,True,0,R_3iPFhdjhn83uXho
194,369.19999998807907,https://cdn.jsdelivr.net/gh/dvitaa/jsPsych-in-QualtricsX1/flanker/img/con1.png,37.0,congruent,left,image-keyboard-response,74,131978,0.0-4.0-0.63,True,0,R_3iPFhdjhn83uXho
195,328.4000000357628,https://cdn.jsdelivr.net/gh/dvitaa/jsPsych-in-QualtricsX1/flanker/img/inc1.png,37.0,incongruent,right,image-keyboard-response,78,139355,0.0-4.0-0.67,False,0,R_3iPFhdjhn83uXho
196,357.10000002384186,https://cdn.jsdelivr.net/gh/dvitaa/jsPsych-in-QualtricsX1/flanker/img/con1.png,37.0,congruent,left,image-keyboard-response,76,135678,0.0-4.0-0.65,True,0,R_3iPFhdjhn83uXho
197,386.69999998807907,https://cdn.jsdelivr.net/gh/dvitaa/jsPsych-in-QualtricsX1/flanker/img/con2.png,39.0,congruent,right,image-keyboard-response,77,137399,0.0-4.0-0.66,True,0,R_3iPFhdjhn83uXho
198,470.5,https://cdn.jsdelivr.net/gh/dvitaa/jsPsych-in-QualtricsX1/flanker/img/inc2.png,37.0,incongruent,left,image-keyboard-response,71,126313,0.0-4.0-0.60,True,0,R_3iPFhdjhn83uXho
199,521.5999999642372,https://cdn.jsdelivr.net/gh/dvitaa/jsPsych-in-QualtricsX1/flanker/img/inc2.png,37.0,incongruent,left,image-keyboard-response,79,141783,0.0-4.0-0.68,True,0,R_3iPFhdjhn83uXho
200,424.30000001192093,https://cdn.jsdelivr.net/gh/dvitaa/jsPsych-in-QualtricsX1/flanker/img/inc2.png,39.0,incongruent,left,image-keyboard-response,75,134081,0.0-4.0-0.64,False,0,R_3iPFhdjhn83uXho
201,511.7999999523163,https://cdn.jsdelivr.net/gh/dvitaa/jsPsych-in-QualtricsX1/flanker/img/inc1.png,39.0,incongruent,right,image-keyboard-response,70,124219,0.0-4.0-0.59,True,0,R_3iPFhdjhn83uXho
202,430.69999998807907,https://cdn.jsdelivr.net/gh/dvitaa/jsPsych-in-QualtricsX1/flanker/img/inc1.png,39.0,incongruent,right,image-keyboard-response,66,115976,0.0-4.0-0.55,True,0,R_3iPFhdjhn83uXho
203,511.89999997615814,https://cdn.jsdelivr.net/gh/dvitaa/jsPsych-in-QualtricsX1/flanker/img/inc1.png,39.0,incongruent,right,image-keyboard-response,68,119488,0.0-4.0-0.57,True,0,R_3iPFhdjhn83uXho
204,380.10000002384186,https://cdn.jsdelivr.net/gh/dvitaa/jsPsych-in-QualtricsX1/flanker/img/inc2.png,39.0,incongruent,left,image-keyboard-response,67,117932,0.0-4.0-0.56,False,0,R_3iPFhdjhn83uXho
205,553.7999999523163,https://cdn.jsdelivr.net/gh/dvitaa/jsPsych-in-QualtricsX1/flanker/img/inc1.png,39.0,incongruent,right,image-keyboard-response,65,113736,0.0-4.0-0.54,True,0,R_3iPFhdjhn83uXho
206,539.3999999761581,https://cdn.jsdelivr.net/gh/dvitaa/jsPsych-in-QualtricsX1/flanker/img/inc1.png,39.0,incongruent,right,image-keyboard-response,64,112189,0.0-4.0-0.53,True,0,R_3iPFhdjhn83uXho
207,400.0,https://cdn.jsdelivr.net/gh/dvitaa/jsPsych-in-QualtricsX1/flanker/img/con2.png,39.0,congruent,right,image-keyboard-response,63,111050,0.0-4.0-0.52,True,0,R_3iPFhdjhn83uXho
208,420.5,https://cdn.jsdelivr.net/gh/dvitaa/jsPsych-in-QualtricsX1/flanker/img/con2.png,39.0,congruent,right,image-keyboard-response,62,109877,0.0-4.0-0.51,True,0,R_3iPFhdjhn83uXho
209,497.30000001192093,https://cdn.jsdelivr.net/gh/dvitaa/jsPsych-in-QualtricsX1/flanker/img/con2.png,39.0,congruent,right,image-keyboard-response,61,108861,0.0-4.0-0.50,True,0,R_3iPFhdjhn83uXho
210,508.89999997615814,https://cdn.jsdelivr.net/gh/dvitaa/jsPsych-in-QualtricsX1/flanker/img/inc1.png,39.0,incongruent,right,image-keyboard-response,60,107691,0.0-4.0-0.49,True,0,R_3iPFhdjhn83uXho
211,384.30000001192093,https://cdn.jsdelivr.net/gh/dvitaa/jsPsych-in-QualtricsX1/flanker/img/con1.png,37.0,congruent,left,image-keyboard-response,80,143051,0.0-4.0-0.69,True,0,R_3iPFhdjhn83uXho
212,443.5,https://cdn.jsdelivr.net/gh/dvitaa/jsPsych-in-QualtricsX1/flanker/img/con2.png,39.0,congruent,right,image-keyboard-response,69,121933,0.0-4.0-0.58,True,0,R_3iPFhdjhn83uXho
213,523.3999999761581,https://cdn.jsdelivr.net/gh/dvitaa/jsPsych-in-QualtricsX1/flanker/img/con2.png,39.0,congruent,right,image-keyboard-response,81,144079,0.0-4.0-0.70,True,0,R_3iPFhdjhn83uXho
214,460.5,https://cdn.jsdelivr.net/gh/dvitaa/jsPsych-in-QualtricsX1/flanker/img/con1.png,37.0,congruent,left,image-keyboard-response,104,183339,0.0-4.0-0.93,True,0,R_3iPFhdjhn83uXho
215,468.4000000357628,https://cdn.jsdelivr.net/gh/dvitaa/jsPsych-in-QualtricsX1/flanker/img/inc1.png,39.0,incongruent,right,image-keyboard-response,83,148516,0.0-4.0-0.72,True,0,R_3iPFhdjhn83uXho
216,419.0,https://cdn.jsdelivr.net/gh/dvitaa/jsPsych-in-QualtricsX1/flanker/img/con2.png,39.0,congruent,right,image-keyboard-response,59,106321,0.0-4.0-0.48,True,0,R_3iPFhdjhn83uXho
217,509.0,https://cdn.jsdelivr.net/gh/dvitaa/jsPsych-in-QualtricsX1/flanker/img/inc1.png,39.0,incongruent,right,image-keyboard-response,103,180947,0.0-4.0-0.92,True,0,R_3iPFhdjhn83uXho
218,416.69999998807907,https://cdn.jsdelivr.net/gh/dvitaa/jsPsych-in-QualtricsX1/flanker/img/con1.png,37.0,congruent,left,image-keyboard-response,102,179360,0.0-4.0-0.91,True,0,R_3iPFhdjhn83uXho
219,585.6999999880791,https://cdn.jsdelivr.net/gh/dvitaa/jsPsych-in-QualtricsX1/flanker/img/inc2.png,37.0,incongruent,left,image-keyboard-response,101,178257,0.0-4.0-0.90,True,0,R_3iPFhdjhn83uXho
220,406.0,https://cdn.jsdelivr.net/gh/dvitaa/jsPsych-in-QualtricsX1/flanker/img/con1.png,37.0,congruent,left,image-keyboard-response,100,176354,0.0-4.0-0.89,True,0,R_3iPFhdjhn83uXho
221,410.0999999642372,https://cdn.jsdelivr.net/gh/dvitaa/jsPsych-in-QualtricsX1/flanker/img/con1.png,37.0,congruent,left,image-keyboard-response,99,174581,0.0-4.0-0.88,True,0,R_3iPFhdjhn83uXho
222,345.89999997615814,https://cdn.jsdelivr.net/gh/dvitaa/jsPsych-in-QualtricsX1/flanker/img/inc2.png,39.0,incongruent,left,image-keyboard-response,98,173035,0.0-4.0-0.87,False,0,R_3iPFhdjhn83uXho
223,413.39999997615814,https://cdn.jsdelivr.net/gh/dvitaa/jsPsych-in-QualtricsX1/flanker/img/con1.png,37.0,congruent,left,image-keyboard-response,97,171084,0.0-4.0-0.86,True,0,R_3iPFhdjhn83uXho
224,470.10000002384186,https://cdn.jsdelivr.net/gh/dvitaa/jsPsych-in-QualtricsX1/flanker/img/inc1.png,39.0,incongruent,right,image-keyboard-response,96,169308,0.0-4.0-0.85,True,0,R_3iPFhdjhn83uXho
225,421.69999998807907,https://cdn.jsdelivr.net/gh/dvitaa/jsPsych-in-QualtricsX1/flanker/img/con2.png,39.0,congruent,right,image-keyboard-response,95,168149,0.0-4.0-0.84,True,0,R_3iPFhdjhn83uXho
226,479.30000001192093,https://cdn.jsdelivr.net/gh/dvitaa/jsPsych-in-QualtricsX1/flanker/img/inc1.png,39.0,incongruent,right,image-keyboard-response,94,166396,0.0-4.0-0.83,True,0,R_3iPFhdjhn83uXho
227,468.9000000357628,https://cdn.jsdelivr.net/gh/dvitaa/jsPsych-in-QualtricsX1/flanker/img/inc2.png,37.0,incongruent,left,image-keyboard-response,93,165032,0.0-4.0-0.82,True,0,R_3iPFhdjhn83uXho
228,488.30000001192093,https://cdn.jsdelivr.net/gh/dvitaa/jsPsych-in-QualtricsX1/flanker/img/inc2.png,37.0,incongruent,left,image-keyboard-response,92,163821,0.0-4.0-0.81,True,0,R_3iPFhdjhn83uXho
229,408.0,https://cdn.jsdelivr.net/gh/dvitaa/jsPsych-in-QualtricsX1/flanker/img/con2.png,39.0,congruent,right,image-keyboard-response,91,161378,0.0-4.0-0.80,True,0,R_3iPFhdjhn83uXho
230,368.5,https://cdn.jsdelivr.net/gh/dvitaa/jsPsych-in-QualtricsX1/flanker/img/con2.png,39.0,congruent,right,image-keyboard-response,90,159711,0.0-4.0-0.79,True,0,R_3iPFhdjhn83uXho
231,449.5,https://cdn.jsdelivr.net/gh/dvitaa/jsPsych-in-QualtricsX1/flanker/img/con2.png,39.0,congruent,right,image-keyboard-response,89,158196,0.0-4.0-0.78,True,0,R_3iPFhdjhn83uXho
232,769.0999999642372,https://cdn.jsdelivr.net/gh/dvitaa/jsPsych-in-QualtricsX1/flanker/img/inc1.png,39.0,incongruent,right,image-keyboard-response,88,156802,0.0-4.0-0.77,True,0,R_3iPFhdjhn83uXho
233,414.60000002384186,https://cdn.jsdelivr.net/gh/dvitaa/jsPsych-in-QualtricsX1/flanker/img/con1.png,37.0,congruent,left,image-keyboard-response,87,154758,0.0-4.0-0.76,True,0,R_3iPFhdjhn83uXho
234,487.19999998807907,https://cdn.jsdelivr.net/gh/dvitaa/jsPsych-in-QualtricsX1/flanker/img/inc1.png,39.0,incongruent,right,image-keyboard-response,86,153528,0.0-4.0-0.75,True,0,R_3iPFhdjhn83uXho
235,442.80000001192093,https://cdn.jsdelivr.net/gh/dvitaa/jsPsych-in-QualtricsX1/flanker/img/con1.png,37.0,congruent,left,image-keyboard-response,85,152113,0.0-4.0-0.74,True,0,R_3iPFhdjhn83uXho
236,373.5,https://cdn.jsdelivr.net/gh/dvitaa/jsPsych-in-QualtricsX1/flanker/img/inc1.png,39.0,incongruent,right,image-keyboard-response,84,150291,0.0-4.0-0.73,True,0,R_3iPFhdjhn83uXho
237,427.0999999642372,https://cdn.jsdelivr.net/gh/dvitaa/jsPsych-in-QualtricsX1/flanker/img/con1.png,37.0,congruent,left,image-keyboard-response,82,146083,0.0-4.0-0.71,True,0,R_3iPFhdjhn83uXho
238,469.80000001192093,https://cdn.jsdelivr.net/gh/dvitaa/jsPsych-in-QualtricsX1/flanker/img/inc1.png,39.0,incongruent,right,image-keyboard-response,58,104985,0.0-4.0-0.47,True,0,R_3iPFhdjhn83uXho
239,458.0999999642372,https://cdn.jsdelivr.net/gh/dvitaa/jsPsych-in-QualtricsX1/flanker/img/inc1.png,39.0,incongruent,right,image-keyboard-response,11,31447,0.0-4.0-0.0,True,0,R_3iPFhdjhn83uXho
240,754.7999999523163,https://cdn.jsdelivr.net/gh/dvitaa/jsPsych-in-QualtricsX1/flanker/img/inc2.png,37.0,incongruent,left,image-keyboard-response,56,101895,0.0-4.0-0.45,True,0,R_3iPFhdjhn83uXho
241,427.39999997615814,https://cdn.jsdelivr.net/gh/dvitaa/jsPsych-in-QualtricsX1/flanker/img/inc2.png,37.0,incongruent,left,image-keyboard-response,30,60980,0.0-4.0-0.19,True,0,R_3iPFhdjhn83uXho
242,473.9000000357628,https://cdn.jsdelivr.net/gh/dvitaa/jsPsych-in-QualtricsX1/flanker/img/con2.png,39.0,congruent,right,image-keyboard-response,29,59784,0.0-4.0-0.18,True,0,R_3iPFhdjhn83uXho
243,577.8999999761581,https://cdn.jsdelivr.net/gh/dvitaa/jsPsych-in-QualtricsX1/flanker/img/inc2.png,37.0,incongruent,left,image-keyboard-response,28,57711,0.0-4.0-0.17,True,0,R_3iPFhdjhn83uXho
244,521.0,https://cdn.jsdelivr.net/gh/dvitaa/jsPsych-in-QualtricsX1/flanker/img/inc1.png,39.0,incongruent,right,image-keyboard-response,27,55452,0.0-4.0-0.16,True,0,R_3iPFhdjhn83uXho
245,438.19999998807907,https://cdn.jsdelivr.net/gh/dvitaa/jsPsych-in-QualtricsX1/flanker/img/con2.png,39.0,congruent,right,image-keyboard-response,26,54029,0.0-4.0-0.15,True,0,R_3iPFhdjhn83uXho
246,390.5,https://cdn.jsdelivr.net/gh/dvitaa/jsPsych-in-QualtricsX1/flanker/img/inc2.png,39.0,incongruent,left,image-keyboard-response,25,51898,0.0-4.0-0.14,False,0,R_3iPFhdjhn83uXho
247,470.30000001192093,https://cdn.jsdelivr.net/gh/dvitaa/jsPsych-in-QualtricsX1/flanker/img/con2.png,39.0,congruent,right,image-keyboard-response,24,50910,0.0-4.0-0.13,True,0,R_3iPFhdjhn83uXho
248,600.8000000119209,https://cdn.jsdelivr.net/gh/dvitaa/jsPsych-in-QualtricsX1/flanker/img/inc2.png,37.0,incongruent,left,image-keyboard-response,23,49682,0.0-4.0-0.12,True,0,R_3iPFhdjhn83uXho
249,427.2999999523163,https://cdn.jsdelivr.net/gh/dvitaa/jsPsych-in-QualtricsX1/flanker/img/con1.png,37.0,congruent,left,image-keyboard-response,22,47758,0.0-4.0-0.11,True,0,R_3iPFhdjhn83uXho
250,421.80000001192093,https://cdn.jsdelivr.net/gh/dvitaa/jsPsych-in-QualtricsX1/flanker/img/inc2.png,37.0,incongruent,left,image-keyboard-response,31,63070,0.0-4.0-0.20,True,0,R_3iPFhdjhn83uXho
251,544.1000000238419,https://cdn.jsdelivr.net/gh/dvitaa/jsPsych-in-QualtricsX1/flanker/img/con1.png,37.0,congruent,left,image-keyboard-response,21,46363,0.0-4.0-0.10,True,0,R_3iPFhdjhn83uXho
252,462.80000001192093,https://cdn.jsdelivr.net/gh/dvitaa/jsPsych-in-QualtricsX1/flanker/img/inc2.png,37.0,incongruent,left,image-keyboard-response,19,42828,0.0-4.0-0.8,True,0,R_3iPFhdjhn83uXho
253,469.80000001192093,https://cdn.jsdelivr.net/gh/dvitaa/jsPsych-in-QualtricsX1/flanker/img/inc2.png,39.0,incongruent,left,image-keyboard-response,18,41488,0.0-4.0-0.7,False,0,R_3iPFhdjhn83uXho
254,480.30000001192093,https://cdn.jsdelivr.net/gh/dvitaa/jsPsych-in-QualtricsX1/flanker/img/inc2.png,39.0,incongruent,left,image-keyboard-response,17,40061,0.0-4.0-0.6,False,0,R_3iPFhdjhn83uXho
255,405.0999999642372,https://cdn.jsdelivr.net/gh/dvitaa/jsPsych-in-QualtricsX1/flanker/img/con2.png,39.0,congruent,right,image-keyboard-response,16,38638,0.0-4.0-0.5,True,0,R_3iPFhdjhn83uXho
256,305.0,https://cdn.jsdelivr.net/gh/dvitaa/jsPsych-in-QualtricsX1/flanker/img/con1.png,39.0,congruent,left,image-keyboard-response,15,37097,0.0-4.0-0.4,False,0,R_3iPFhdjhn83uXho
257,319.89999997615814,https://cdn.jsdelivr.net/gh/dvitaa/jsPsych-in-QualtricsX1/flanker/img/con1.png,37.0,congruent,left,image-keyboard-response,14,35980,0.0-4.0-0.3,True,0,R_3iPFhdjhn83uXho
258,376.19999998807907,https://cdn.jsdelivr.net/gh/dvitaa/jsPsych-in-QualtricsX1/flanker/img/con2.png,39.0,congruent,right,image-keyboard-response,13,34643,0.0-4.0-0.2,True,0,R_3iPFhdjhn83uXho
259,346.0,https://cdn.jsdelivr.net/gh/dvitaa/jsPsych-in-QualtricsX1/flanker/img/con1.png,37.0,congruent,left,image-keyboard-response,12,33179,0.0-4.0-0.1,True,0,R_3iPFhdjhn83uXho
260,406.80000001192093,https://cdn.jsdelivr.net/gh/dvitaa/jsPsych-in-QualtricsX1/flanker/img/inc2.png,37.0,incongruent,left,image-keyboard-response,105,184993,0.0-4.0-0.94,True,0,R_3iPFhdjhn83uXho
261,587.8000000119209,https://cdn.jsdelivr.net/gh/dvitaa/jsPsych-in-QualtricsX1/flanker/img/inc2.png,37.0,incongruent,left,image-keyboard-response,20,44387,0.0-4.0-0.9,True,0,R_3iPFhdjhn83uXho
262,404.19999998807907,https://cdn.jsdelivr.net/gh/dvitaa/jsPsych-in-QualtricsX1/flanker/img/con2.png,39.0,congruent,right,image-keyboard-response,32,64945,0.0-4.0-0.21,True,0,R_3iPFhdjhn83uXho
263,396.69999998807907,https://cdn.jsdelivr.net/gh/dvitaa/jsPsych-in-QualtricsX1/flanker/img/con1.png,37.0,congruent,left,image-keyboard-response,33,66215,0.0-4.0-0.22,True,0,R_3iPFhdjhn83uXho
264,352.0,https://cdn.jsdelivr.net/gh/dvitaa/jsPsych-in-QualtricsX1/flanker/img/con2.png,39.0,congruent,right,image-keyboard-response,34,67784,0.0-4.0-0.23,True,0,R_3iPFhdjhn83uXho
265,739.6999999880791,https://cdn.jsdelivr.net/gh/dvitaa/jsPsych-in-QualtricsX1/flanker/img/con1.png,39.0,congruent,left,image-keyboard-response,55,100553,0.0-4.0-0.44,False,0,R_3iPFhdjhn83uXho
266,498.5999999642372,https://cdn.jsdelivr.net/gh/dvitaa/jsPsych-in-QualtricsX1/flanker/img/inc1.png,39.0,incongruent,right,image-keyboard-response,54,99116,0.0-4.0-0.43,True,0,R_3iPFhdjhn83uXho
267,564.1000000238419,https://cdn.jsdelivr.net/gh/dvitaa/jsPsych-in-QualtricsX1/flanker/img/inc2.png,37.0,incongruent,left,image-keyboard-response,53,97794,0.0-4.0-0.42,True,0,R_3iPFhdjhn83uXho
268,566.1999999880791,https://cdn.jsdelivr.net/gh/dvitaa/jsPsych-in-QualtricsX1/flanker/img/inc1.png,39.0,incongruent,right,image-keyboard-response,52,96025,0.0-4.0-0.41,True,0,R_3iPFhdjhn83uXho
269,395.10000002384186,https://cdn.jsdelivr.net/gh/dvitaa/jsPsych-in-QualtricsX1/flanker/img/inc2.png,39.0,incongruent,left,image-keyboard-response,51,94879,0.0-4.0-0.40,False,0,R_3iPFhdjhn83uXho
270,420.5,https://cdn.jsdelivr.net/gh/dvitaa/jsPsych-in-QualtricsX1/flanker/img/con2.png,39.0,congruent,right,image-keyboard-response,50,93929,0.0-4.0-0.39,True,0,R_3iPFhdjhn83uXho
271,436.30000001192093,https://cdn.jsdelivr.net/gh/dvitaa/jsPsych-in-QualtricsX1/flanker/img/inc1.png,39.0,incongruent,right,image-keyboard-response,49,92366,0.0-4.0-0.38,True,0,R_3iPFhdjhn83uXho
272,418.69999998807907,https://cdn.jsdelivr.net/gh/dvitaa/jsPsych-in-QualtricsX1/flanker/img/con1.png,37.0,congruent,left,image-keyboard-response,48,90189,0.0-4.0-0.37,True,0,R_3iPFhdjhn83uXho
273,374.0,https://cdn.jsdelivr.net/gh/dvitaa/jsPsych-in-QualtricsX1/flanker/img/con2.png,39.0,congruent,right,image-keyboard-response,47,89162,0.0-4.0-0.36,True,0,R_3iPFhdjhn83uXho
274,494.39999997615814,https://cdn.jsdelivr.net/gh/dvitaa/jsPsych-in-QualtricsX1/flanker/img/inc2.png,37.0,incongruent,left,image-keyboard-response,46,87245,0.0-4.0-0.35,True,0,R_3iPFhdjhn83uXho
275,365.5,https://cdn.jsdelivr.net/gh/dvitaa/jsPsych-in-QualtricsX1/flanker/img/con1.png,37.0,congruent,left,image-keyboard-response,45,85172,0.0-4.0-0.34,True,0,R_3iPFhdjhn83uXho
276,562.3999999761581,https://cdn.jsdelivr.net/gh/dvitaa/jsPsych-in-QualtricsX1/flanker/img/inc1.png,39.0,incongruent,right,image-keyboard-response,44,83753,0.0-4.0-0.33,True,0,R_3iPFhdjhn83uXho
277,383.60000002384186,https://cdn.jsdelivr.net/gh/dvitaa/jsPsych-in-QualtricsX1/flanker/img/con2.png,39.0,congruent,right,image-keyboard-response,43,82474,0.0-4.0-0.32,True,0,R_3iPFhdjhn83uXho
278,347.89999997615814,https://cdn.jsdelivr.net/gh/dvitaa/jsPsych-in-QualtricsX1/flanker/img/con1.png,37.0,congruent,left,image-keyboard-response,42,80353,0.0-4.0-0.31,True,0,R_3iPFhdjhn83uXho
279,383.0,https://cdn.jsdelivr.net/gh/dvitaa/jsPsych-in-QualtricsX1/flanker/img/con2.png,39.0,congruent,right,image-keyboard-response,41,78641,0.0-4.0-0.30,True,0,R_3iPFhdjhn83uXho
280,376.39999997615814,https://cdn.jsdelivr.net/gh/dvitaa/jsPsych-in-QualtricsX1/flanker/img/con1.png,37.0,congruent,left,image-keyboard-response,40,76527,0.0-4.0-0.29,True,0,R_3iPFhdjhn83uXho
281,413.10000002384186,https://cdn.jsdelivr.net/gh/dvitaa/jsPsych-in-QualtricsX1/flanker/img/inc1.png,37.0,incongruent,right,image-keyboard-response,39,75061,0.0-4.0-0.28,False,0,R_3iPFhdjhn83uXho
282,530.9000000357628,https://cdn.jsdelivr.net/gh/dvitaa/jsPsych-in-QualtricsX1/flanker/img/inc2.png,37.0,incongruent,left,image-keyboard-response,38,73884,0.0-4.0-0.27,True,0,R_3iPFhdjhn83uXho
283,392.5,https://cdn.jsdelivr.net/gh/dvitaa/jsPsych-in-QualtricsX1/flanker/img/con2.png,39.0,congruent,right,image-keyboard-response,37,71720,0.0-4.0-0.26,True,0,R_3iPFhdjhn83uXho
284,450.0,https://cdn.jsdelivr.net/gh/dvitaa/jsPsych-in-QualtricsX1/flanker/img/con1.png,37.0,congruent,left,image-keyboard-response,36,70595,0.0-4.0-0.25,True,0,R_3iPFhdjhn83uXho
285,366.9000000357628,https://cdn.jsdelivr.net/gh/dvitaa/jsPsych-in-QualtricsX1/flanker/img/inc1.png,37.0,incongruent,right,image-keyboard-response,35,69285,0.0-4.0-0.24,False,0,R_3iPFhdjhn83uXho
286,446.5999999642372,https://cdn.jsdelivr.net/gh/dvitaa/jsPsych-in-QualtricsX1/flanker/img/inc1.png,39.0,incongruent,right,image-keyboard-response,57,103475,0.0-4.0-0.46,True,0,R_3iPFhdjhn83uXho
287,401.0,https://cdn.jsdelivr.net/gh/dvitaa/jsPsych-in-QualtricsX1/flanker/img/con1.png,37.0,congruent,left,image-keyboard-response,106,186948,0.0-4.0-0.95,True,0,R_3iPFhdjhn83uXho
